t_ns,t_bag_ns,wx,wy,wz,ax,ay,az,qx,qy,qz,qw
1789658224092232300,1789658224102375728,0.010641999542713165,-0.031925998628139496,0.09258539974689484,0.13587094843387604,-0.15981295704841614,9.776124000549316,-0.0001671456848271191,0.013454730622470379,-0.6866773366928101,-0.72683185338974
1789658224102290085,1789658224105965012,0.010641999542713165,-0.031925998628139496,0.09258539974689484,0.13587094843387604,-0.15981295704841614,9.776124000549316,-0.0001671456848271191,0.013454730622470379,-0.6866773366928101,-0.72683185338974
1789658224106904567,1789658224111254675,0.010641999542713165,-0.031925998628139496,0.09258539974689484,0.13587094843387604,-0.15981295704841614,9.776124000549316,-0.0001671456848271191,0.013454730622470379,-0.6866773366928101,-0.72683185338974
1789658224111934116,1789658224125454470,0.010641999542713165,-0.031925998628139496,0.09258539974689484,0.23582886159420013,-0.2059013396501541,9.855731010437012,0.0004267268523108214,0.013518796302378178,-0.6873890161514282,-0.7261576056480408
1789658224125520262,1789658224130280217,0.010641999542713165,-0.031925998628139496,0.09258539974689484,0.23582886159420013,-0.2059013396501541,9.855731010437012,0.0004267268523108214,0.013518796302378178,-0.6873890161514282,-0.7261576056480408
1789658224130962676,1789658224143516810,0.011706200428307056,-0.029797600582242012,0.09258539974689484,0.1256955862045288,-0.19871874153614044,9.880271911621094,0.0018767587607726455,0.012599961832165718,-0.6881200671195984,-0.7254790663719177
1789658224143521532,1789658224144987314,0.011706200428307056,-0.029797600582242012,0.09258539974689484,0.1256955862045288,-0.19871874153614044,9.880271911621094,0.0018767587607726455,0.012599961832165718,-0.6881200671195984,-0.7254790663719177
1789658224147941303,1789658224150387823,0.011706200428307056,-0.029797600582242012,0.09258539974689484,0.1256955862045288,-0.19871874153614044,9.880271911621094,0.0018767587607726455,0.012599961832165718,-0.6881200671195984,-0.7254790663719177
1789658224153028479,1789658224164410924,0.011706200428307056,-0.029797600582242012,0.09152120351791382,0.2064998894929886,-0.16579847037792206,9.836577415466309,0.000924232299439609,0.013964932411909103,-0.688801109790802,-0.7248092889785767
1789658224164212862,1789658224165788971,0.011706200428307056,-0.029797600582242012,0.09152120351791382,0.2064998894929886,-0.16579847037792206,9.836577415466309,0.000924232299439609,0.013964932411909103,-0.688801109790802,-0.7248092889785767
1789658224167802961,1789658224170849870,0.011706200428307056,-0.029797600582242012,0.09152120351791382,0.2064998894929886,-0.16579847037792206,9.836577415466309,0.000924232299439609,0.013964932411909103,-0.688801109790802,-0.7248092889785767
1789658224172995760,1789658224185908409,0.010641999542713165,-0.03086180053651333,0.09258539974689484,0.18375498056411743,-0.20470423996448517,9.899425506591797,0.0012137473095208406,0.013722051866352558,-0.6895110011100769,-0.7241382002830505
1789658224185996960,1789658224188980206,0.010641999542713165,-0.03086180053651333,0.09258539974689484,0.18375498056411743,-0.20470423996448517,9.899425506591797,0.0012137473095208406,0.013722051866352558,-0.6895110011100769,-0.7241382002830505
1789658224189770770,1789658224192718315,0.010641999542713165,-0.03086180053651333,0.09258539974689484,0.18375498056411743,-0.20470423996448517,9.899425506591797,0.0012137473095208406,0.013722051866352558,-0.6895110011100769,-0.7241382002830505
1789658224194456099,1789658224206085196,0.012770400382578373,-0.031925998628139496,0.09152120351791382,0.1496376097202301,-0.1999158412218094,9.820416450500488,0.00014988712791819125,0.013921869918704033,-0.6902050375938416,-0.723473846912384
1789658224206773303,1789658224210716492,0.012770400382578373,-0.031925998628139496,0.09152120351791382,0.1496376097202301,-0.1999158412218094,9.820416450500488,0.00014988712791819125,0.013921869918704033,-0.6902050375938416,-0.723473846912384
1789658224211008271,1789658224216505829,0.012770400382578373,-0.031925998628139496,0.09152120351791382,0.1496376097202301,-0.1999158412218094,9.820416450500488,0.00014988712791819125,0.013921869918704033,-0.6902050375938416,-0.723473846912384
1789658224216055986,1789658224226187525,0.01383460033684969,-0.031925998628139496,0.09364960342645645,0.2172738015651703,-0.22625206410884857,9.767146110534668,0.0009560727630741894,0.014143736101686954,-0.6909164786338806,-0.7227897047996521
1789658224226801081,1789658224228925694,0.01383460033684969,-0.031925998628139496,0.09364960342645645,0.2172738015651703,-0.22625206410884857,9.767146110534668,0.0009560727630741894,0.014143736101686954,-0.6909164786338806,-0.7227897047996521
1789658224229601597,1789658224232925842,0.01383460033684969,-0.031925998628139496,0.09364960342645645,0.2172738015651703,-0.22625206410884857,9.767146110534668,0.0009560727630741894,0.014143736101686954,-0.6909164786338806,-0.7227897047996521
1789658224233472568,1789658224236607398,0.01383460033684969,-0.031925998628139496,0.09364960342645645,0.2172738015651703,-0.22625206410884857,9.767146110534668,0.0009560727630741894,0.014143736101686954,-0.6909164786338806,-0.7227897047996521
1789658224237856564,1789658224247064603,0.012770400382578373,-0.03086180053651333,0.09152120351791382,0.15143325924873352,-0.17477671802043915,9.913790702819824,0.0006568886456079781,0.012300183065235615,-0.69163578748703,-0.7221353650093079
1789658224247734100,1789658224250818007,0.012770400382578373,-0.03086180053651333,0.09152120351791382,0.15143325924873352,-0.17477671802043915,9.913790702819824,0.0006568886456079781,0.012300183065235615,-0.69163578748703,-0.7221353650093079
1789658224252813961,1789658224256893271,0.012770400382578373,-0.03086180053651333,0.09152120351791382,0.15143325924873352,-0.17477671802043915,9.913790702819824,0.0006568886456079781,0.012300183065235615,-0.69163578748703,-0.7221353650093079
1789658224257691057,1789658224268123170,0.011706200428307056,-0.03086180053651333,0.09152120351791382,0.19452887773513794,-0.21667525172233582,9.87967300415039,0.00022324321616906673,0.014113098382949829,-0.6923080682754517,-0.7214578986167908
1789658224268807611,1789658224271737657,0.011706200428307056,-0.03086180053651333,0.09152120351791382,0.19452887773513794,-0.21667525172233582,9.87967300415039,0.00022324321616906673,0.014113098382949829,-0.6923080682754517,-0.7214578986167908
1789658224273165775,1789658224275097066,0.011706200428307056,-0.03086180053651333,0.09152120351791382,0.19452887773513794,-0.21667525172233582,9.87967300415039,0.00022324321616906673,0.014113098382949829,-0.6923080682754517,-0.7214578986167908
1789658224277861511,1789658224288970658,0.01383460033684969,-0.029797600582242012,0.09152120351791382,0.181959331035614,-0.228047713637352,9.869498252868652,0.0011810149298980832,0.013718293979763985,-0.6930176019668579,-0.7207831740379333
1789658224289432130,1789658224292151744,0.01383460033684969,-0.029797600582242012,0.09152120351791382,0.181959331035614,-0.228047713637352,9.869498252868652,0.0011810149298980832,0.013718293979763985,-0.6930176019668579,-0.7207831740379333
1789658224293042746,1789658224295777711,0.01383460033684969,-0.029797600582242012,0.09152120351791382,0.181959331035614,-0.228047713637352,9.869498252868652,0.0011810149298980832,0.013718293979763985,-0.6930176019668579,-0.7207831740379333
1789658224297830570,1789658224310482901,0.012770400382578373,-0.03299019858241081,0.09258539974689484,0.17238251864910126,-0.17537526786327362,9.854534149169922,-9.138916357187554e-05,0.01401542965322733,-0.6937060952186584,-0.7201159000396729
1789658224310383407,1789658224312079102,0.012770400382578373,-0.03299019858241081,0.09258539974689484,0.17238251864910126,-0.17537526786327362,9.854534149169922,-9.138916357187554e-05,0.01401542965322733,-0.6937060952186584,-0.7201159000396729
1789658224313116188,1789658224317150723,0.012770400382578373,-0.03299019858241081,0.09258539974689484,0.17238251864910126,-0.17537526786327362,9.854534149169922,-9.138916357187554e-05,0.01401542965322733,-0.6937060952186584,-0.7201159000396729
1789658224317980673,1789658224331778566,0.011706200428307056,-0.031925998628139496,0.09152120351791382,0.2609679698944092,-0.18734627962112427,9.9371337890625,-0.0016165390843525529,0.013829496689140797,-0.6943843364715576,-0.7194637060165405
1789658224332616793,1789658224334930580,0.011706200428307056,-0.031925998628139496,0.09152120351791382,0.2609679698944092,-0.18734627962112427,9.9371337890625,-0.0016165390843525529,0.013829496689140797,-0.6943843364715576,-0.7194637060165405
1789658224335909725,1789658224338116536,0.011706200428307056,-0.031925998628139496,0.09152120351791382,0.2609679698944092,-0.18734627962112427,9.9371337890625,-0.0016165390843525529,0.013829496689140797,-0.6943843364715576,-0.7194637060165405
1789658224338709464,1789658224352355199,0.01383460033684969,-0.031925998628139496,0.09258539974689484,0.19393032789230347,-0.25258827209472656,9.908403396606445,-0.00010570354788796976,0.013915636576712132,-0.695099413394928,-0.7187728881835938
1789658224352903851,1789658224357181761,0.01383460033684969,-0.031925998628139496,0.09258539974689484,0.19393032789230347,-0.25258827209472656,9.908403396606445,-0.00010570354788796976,0.013915636576712132,-0.695099413394928,-0.7187728881835938
1789658224357704674,1789658224361312290,0.01383460033684969,-0.031925998628139496,0.09258539974689484,0.19393032789230347,-0.25258827209472656,9.908403396606445,-0.00010570354788796976,0.013915636576712132,-0.695099413394928,-0.7187728881835938
1789658224362672597,1789658224373546499,0.011706200428307056,-0.03086180053651333,0.09364960342645645,0.16519992053508759,-0.19213467836380005,10.021529197692871,-0.0009539128514006734,0.01451521273702383,-0.6957873702049255,-0.7180943489074707
1789658224373115303,1789658224375639336,0.011706200428307056,-0.03086180053651333,0.09364960342645645,0.16519992053508759,-0.19213467836380005,10.021529197692871,-0.0009539128514006734,0.01451521273702383,-0.6957873702049255,-0.7180943489074707
1789658224380249207,1789658224393273406,0.01383460033684969,-0.031925998628139496,0.09364960342645645,0.1999158412218094,-0.18495208024978638,9.800065994262695,-0.0007340367883443832,0.01390637643635273,-0.6965041756629944,-0.7174117565155029
1789658224393698047,1789658224395847973,0.01383460033684969,-0.031925998628139496,0.09364960342645645,0.1999158412218094,-0.18495208024978638,9.800065994262695,-0.0007340367883443832,0.01390637643635273,-0.6965041756629944,-0.7174117565155029
1789658224397849445,1789658224400041332,0.01383460033684969,-0.031925998628139496,0.09364960342645645,0.1999158412218094,-0.18495208024978638,9.800065994262695,-0.0007340367883443832,0.01390637643635273,-0.6965041756629944,-0.7174117565155029
1789658224402810795,1789658224414335510,0.012770400382578373,-0.029797600582242012,0.09258539974689484,0.16579847037792206,-0.2412158101797104,9.932944297790527,0.0010425860527902842,0.014245590195059776,-0.6972251534461975,-0.7167037725448608
1789658224414849497,1789658224418496371,0.012770400382578373,-0.029797600582242012,0.09258539974689484,0.16579847037792206,-0.2412158101797104,9.932944297790527,0.0010425860527902842,0.014245590195059776,-0.6972251534461975,-0.7167037725448608
1789658224419689429,1789658224423953783,0.012770400382578373,-0.029797600582242012,0.09258539974689484,0.16579847037792206,-0.2412158101797104,9.932944297790527,0.0010425860527902842,0.014245590195059776,-0.6972251534461975,-0.7167037725448608
1789658224426556960,1789658224435120001,0.012770400382578373,-0.03086180053651333,0.09258539974689484,0.21787235140800476,-0.22505494952201843,9.995193481445312,0.0006416685646399856,0.01582169532775879,-0.697899341583252,-0.7160146832466125
1789658224436000633,1789658224439912657,0.012770400382578373,-0.03086180053651333,0.09258539974689484,0.21787235140800476,-0.22505494952201843,9.995193481445312,0.0006416685646399856,0.01582169532775879,-0.697899341583252,-0.7160146832466125
1789658224441276594,1789658224444249063,0.012770400382578373,-0.03086180053651333,0.09258539974689484,0.21787235140800476,-0.22505494952201843,9.995193481445312,0.0006416685646399856,0.01582169532775879,-0.697899341583252,-0.7160146832466125
1789658224445014906,1789658224456592266,0.012770400382578373,-0.029797600582242012,0.09258539974689484,0.1586158573627472,-0.21368250250816345,9.946710586547852,0.0012114549754187465,0.014116520993411541,-0.6986271739006042,-0.7153395414352417
1789658224457984441,1789658224461330481,0.012770400382578373,-0.029797600582242012,0.09258539974689484,0.1586158573627472,-0.21368250250816345,9.946710586547852,0.0012114549754187465,0.014116520993411541,-0.6986271739006042,-0.7153395414352417
1789658224463494128,1789658224466196410,0.012770400382578373,-0.029797600582242012,0.09258539974689484,0.1586158573627472,-0.21368250250816345,9.946710586547852,0.0012114549754187465,0.014116520993411541,-0.6986271739006042,-0.7153395414352417
1789658224467877939,1789658224477231691,0.012770400382578373,-0.029797600582242012,0.09258539974689484,0.15921440720558167,-0.1951274424791336,9.997587203979492,2.8034550268785097e-05,0.013722573406994343,-0.6993176937103271,-0.7146732807159424
1789658224478364197,1789658224481040703,0.012770400382578373,-0.029797600582242012,0.09258539974689484,0.15921440720558167,-0.1951274424791336,9.997587203979492,2.8034550268785097e-05,0.013722573406994343,-0.6993176937103271,-0.7146732807159424
1789658224483456410,1789658224486654662,0.012770400382578373,-0.029797600582242012,0.09258539974689484,0.15921440720558167,-0.1951274424791336,9.997587203979492,2.8034550268785097e-05,0.013722573406994343,-0.6993176937103271,-0.7146732807159424
1789658224487889403,1789658224498932498,0.012770400382578373,-0.029797600582242012,0.09364960342645645,0.20350714027881622,-0.23702596127986908,9.91738224029541,0.0011707862140610814,0.014638056978583336,-0.7000187635421753,-0.7139674425125122
1789658224499016159,1789658224501808880,0.012770400382578373,-0.029797600582242012,0.09364960342645645,0.20350714027881622,-0.23702596127986908,9.91738224029541,0.0011707862140610814,0.014638056978583336,-0.7000187635421753,-0.7139674425125122
1789658224503358472,1789658224507562072,0.012770400382578373,-0.029797600582242012,0.09364960342645645,0.20350714027881622,-0.23702596127986908,9.91738224029541,0.0011707862140610814,0.014638056978583336,-0.7000187635421753,-0.7139674425125122
1789658224508232957,1789658224519037400,0.012770400382578373,-0.029797600582242012,0.09258539974689484,0.13347674906253815,-0.20709843933582306,9.869498252868652,0.001973299775272608,0.013015596196055412,-0.7007401585578918,-0.7132890820503235
1789658224519477985,1789658224524300269,0.012770400382578373,-0.029797600582242012,0.09258539974689484,0.13347674906253815,-0.20709843933582306,9.869498252868652,0.001973299775272608,0.013015596196055412,-0.7007401585578918,-0.7132890820503235
1789658224524672450,1789658224528254383,0.012770400382578373,-0.029797600582242012,0.09258539974689484,0.13347674906253815,-0.20709843933582306,9.869498252868652,0.001973299775272608,0.013015596196055412,-0.7007401585578918,-0.7132890820503235
1789658224528738558,1789658224539181393,0.012770400382578373,-0.03086180053651333,0.09258539974689484,0.17836801707744598,-0.20051439106464386,9.982025146484375,0.000789594603702426,0.013484747149050236,-0.7014150023460388,-0.7126191258430481
1789658224539756969,1789658224542024685,0.012770400382578373,-0.03086180053651333,0.09258539974689484,0.17836801707744598,-0.20051439106464386,9.982025146484375,0.000789594603702426,0.013484747149050236,-0.7014150023460388,-0.7126191258430481
1789658224542922742,1789658224545923080,0.012770400382578373,-0.03086180053651333,0.09258539974689484,0.17836801707744598,-0.20051439106464386,9.982025146484375,0.000789594603702426,0.013484747149050236,-0.7014150023460388,-0.7126191258430481
1789658224547962495,1789658224560079711,0.012770400382578373,-0.03086180053651333,0.09364960342645645,0.1693897694349289,-0.228047713637352,9.931747436523438,0.001865173690021038,0.013505798764526844,-0.7021231055259705,-0.7119190692901611
1789658224560190648,1789658224565563270,0.012770400382578373,-0.03086180053651333,0.09364960342645645,0.1693897694349289,-0.228047713637352,9.931747436523438,0.001865173690021038,0.013505798764526844,-0.7021231055259705,-0.7119190692901611
1789658224563773118,1789658224574260673,0.012770400382578373,-0.03086180053651333,0.09364960342645645,0.1693897694349289,-0.228047713637352,9.931747436523438,0.001865173690021038,0.013505798764526844,-0.7021231055259705,-0.7119190692901611
1789658224574877988,1789658224583154805,0.01383460033684969,-0.029797600582242012,0.09152120351791382,0.0802057534456253,-0.1999158412218094,9.898826599121094,0.0007319592405110598,0.013589276932179928,-0.7028027772903442,-0.7112485766410828
1789658224585605102,1789658224588090675,0.01383460033684969,-0.029797600582242012,0.09152120351791382,0.0802057534456253,-0.1999158412218094,9.898826599121094,0.0007319592405110598,0.013589276932179928,-0.7028027772903442,-0.7112485766410828
1789658224589243679,1789658224602024615,0.011706200428307056,-0.03086180053651333,0.09152120351791382,0.20350714027881622,-0.1646013706922531,9.852738380432129,0.0011264212662354112,0.013548942282795906,-0.7034974694252014,-0.7105617523193359
1789658224603125030,1789658224607273799,0.011706200428307056,-0.03086180053651333,0.09152120351791382,0.20350714027881622,-0.1646013706922531,9.852738380432129,0.0011264212662354112,0.013548942282795906,-0.7034974694252014,-0.7105617523193359
1789658224608371474,1789658224610896933,0.011706200428307056,-0.03086180053651333,0.09152120351791382,0.20350714027881622,-0.1646013706922531,9.852738380432129,0.0011264212662354112,0.013548942282795906,-0.7034974694252014,-0.7105617523193359
1789658224613349304,1789658224623773400,0.011706200428307056,-0.029797600582242012,0.09258539974689484,0.1364694982767105,-0.2579752206802368,9.965864181518555,0.00015491263184230775,0.013515041209757328,-0.7041791677474976,-0.709887683391571
1789658224623283744,1789658224624850483,0.011706200428307056,-0.029797600582242012,0.09258539974689484,0.1364694982767105,-0.2579752206802368,9.965864181518555,0.00015491263184230775,0.013515041209757328,-0.7041791677474976,-0.709887683391571
1789658224627803732,1789658224629855756,0.011706200428307056,-0.029797600582242012,0.09258539974689484,0.1364694982767105,-0.2579752206802368,9.965864181518555,0.00015491263184230775,0.013515041209757328,-0.7041791677474976,-0.709887683391571
1789658224632851928,1789658224645695489,0.014898800291121006,-0.029797600582242012,0.09364960342645645,0.1107318252325058,-0.19393032789230347,9.8970308303833,1.1995307431789115e-05,0.014470566995441914,-0.7048718929290771,-0.7091807723045349
1789658224644793266,1789658224649380175,0.014898800291121006,-0.029797600582242012,0.09364960342645645,0.1107318252325058,-0.19393032789230347,9.8970308303833,1.1995307431789115e-05,0.014470566995441914,-0.7048718929290771,-0.7091807723045349
1789658224650757037,1789658224655125367,0.014898800291121006,-0.029797600582242012,0.09364960342645645,0.1107318252325058,-0.19393032789230347,9.8970308303833,1.1995307431789115e-05,0.014470566995441914,-0.7048718929290771,-0.7091807723045349
1789658224655255748,1789658224665713064,0.012770400382578373,-0.03086180053651333,0.09258539974689484,0.16579847037792206,-0.22924481332302094,9.99220085144043,0.001317276037298143,0.013773157261312008,-0.7055808305740356,-0.7084882855415344
1789658224665561036,1789658224668931740,0.012770400382578373,-0.03086180053651333,0.09258539974689484,0.16579847037792206,-0.22924481332302094,9.99220085144043,0.001317276037298143,0.013773157261312008,-0.7055808305740356,-0.7084882855415344
1789658224669809484,1789658224671999334,0.012770400382578373,-0.03086180053651333,0.09258539974689484,0.16579847037792206,-0.22924481332302094,9.99220085144043,0.001317276037298143,0.013773157261312008,-0.7055808305740356,-0.7084882855415344
1789658224674091264,1789658224685171709,0.011706200428307056,-0.03299019858241081,0.09258539974689484,0.10295066982507706,-0.1885433793067932,9.880271911621094,8.609527139924467e-05,0.013544141314923763,-0.7062649130821228,-0.7078118920326233
1789658224685678826,1789658224688269337,0.011706200428307056,-0.03299019858241081,0.09258539974689484,0.10295066982507706,-0.1885433793067932,9.880271911621094,8.609527139924467e-05,0.013544141314923763,-0.7062649130821228,-0.7078118920326233
1789658224688732106,1789658224692426476,0.011706200428307056,-0.03299019858241081,0.09258539974689484,0.10295066982507706,-0.1885433793067932,9.880271911621094,8.609527139924467e-05,0.013544141314923763,-0.7062649130821228,-0.7078118920326233
1789658224693100565,1789658224694856163,0.011706200428307056,-0.03299019858241081,0.09258539974689484,0.10295066982507706,-0.1885433793067932,9.880271911621094,8.609527139924467e-05,0.013544141314923763,-0.7062649130821228,-0.7078118920326233
1789658224697844891,1789658224706400303,0.010641999542713165,-0.03299019858241081,0.09152120351791382,0.17836801707744598,-0.1909375786781311,9.935338020324707,0.00034723931457847357,0.013193340972065926,-0.7069532871246338,-0.707131028175354
1789658224705980032,1789658224709213430,0.010641999542713165,-0.03299019858241081,0.09152120351791382,0.17836801707744598,-0.1909375786781311,9.935338020324707,0.00034723931457847357,0.013193340972065926,-0.7069532871246338,-0.707131028175354
1789658224709666254,1789658224713492691,0.010641999542713165,-0.03299019858241081,0.09152120351791382,0.17836801707744598,-0.1909375786781311,9.935338020324707,0.00034723931457847357,0.013193340972065926,-0.7069532871246338,-0.707131028175354
1789658224713945793,1789658224716992221,0.010641999542713165,-0.03299019858241081,0.09152120351791382,0.17836801707744598,-0.1909375786781311,9.935338020324707,0.00034723931457847357,0.013193340972065926,-0.7069532871246338,-0.707131028175354
1789658224717854133,1789658224727007323,0.012770400382578373,-0.03299019858241081,0.09258539974689484,0.08858545869588852,-0.22086510062217712,9.78869342803955,0.001885131117887795,0.013408343307673931,-0.707652747631073,-0.7064246535301208
1789658224727769518,1789658224729905353,0.012770400382578373,-0.03299019858241081,0.09258539974689484,0.08858545869588852,-0.22086510062217712,9.78869342803955,0.001885131117887795,0.013408343307673931,-0.707652747631073,-0.7064246535301208
1789658224732793697,1789658224737091772,0.012770400382578373,-0.03299019858241081,0.09258539974689484,0.08858545869588852,-0.22086510062217712,9.78869342803955,0.001885131117887795,0.013408343307673931,-0.707652747631073,-0.7064246535301208
1789658224737804729,1789658224749022907,0.011706200428307056,-0.031925998628139496,0.09152120351791382,0.13587094843387604,-0.18375498056411743,9.874884605407715,0.0008546437020413578,0.013964653015136719,-0.7083213925361633,-0.7057453393936157
1789658224748399000,1789658224751742891,0.011706200428307056,-0.031925998628139496,0.09152120351791382,0.13587094843387604,-0.18375498056411743,9.874884605407715,0.0008546437020413578,0.013964653015136719,-0.7083213925361633,-0.7057453393936157
1789658224753046480,1789658224755366711,0.011706200428307056,-0.031925998628139496,0.09152120351791382,0.13587094843387604,-0.18375498056411743,9.874884605407715,0.0008546437020413578,0.013964653015136719,-0.7083213925361633,-0.7057453393936157
1789658224758019847,1789658224769033130,0.012770400382578373,-0.03299019858241081,0.09258539974689484,0.13826514780521393,-0.24660277366638184,9.854534149169922,0.0006232308805920184,0.015127203427255154,-0.7089967131614685,-0.7050430774688721
1789658224768978263,1789658224772153664,0.012770400382578373,-0.03299019858241081,0.09258539974689484,0.13826514780521393,-0.24660277366638184,9.854534149169922,0.0006232308805920184,0.015127203427255154,-0.7089967131614685,-0.7050430774688721
1789658224774129916,1789658224776128999,0.012770400382578373,-0.03299019858241081,0.09258539974689484,0.13826514780521393,-0.24660277366638184,9.854534149169922,0.0006232308805920184,0.015127203427255154,-0.7089967131614685,-0.7050430774688721
1789658224778257538,1789658224790777211,0.012770400382578373,-0.03299019858241081,0.09152120351791382,0.14006079733371735,-0.20889408886432648,9.804255485534668,0.0009481532615609467,0.013509571552276611,-0.7097049951553345,-0.7043627500534058
1789658224790258706,1789658224793135959,0.012770400382578373,-0.03299019858241081,0.09152120351791382,0.14006079733371735,-0.20889408886432648,9.804255485534668,0.0009481532615609467,0.013509571552276611,-0.7097049951553345,-0.7043627500534058
1789658224793892117,1789658224796767962,0.012770400382578373,-0.03299019858241081,0.09152120351791382,0.14006079733371735,-0.20889408886432648,9.804255485534668,0.0009481532615609467,0.013509571552276611,-0.7097049951553345,-0.7043627500534058
1789658224798475156,1789658224811150579,0.012770400382578373,-0.031925998628139496,0.09152120351791382,0.17178396880626678,-0.2124854028224945,9.840766906738281,0.00019483722280710936,0.014269334264099598,-0.7103750705718994,-0.7036725282669067
1789658224811214723,1789658224814152825,0.012770400382578373,-0.031925998628139496,0.09152120351791382,0.17178396880626678,-0.2124854028224945,9.840766906738281,0.00019483722280710936,0.014269334264099598,-0.7103750705718994,-0.7036725282669067
1789658224814011074,1789658224818283780,0.012770400382578373,-0.031925998628139496,0.09152120351791382,0.17178396880626678,-0.2124854028224945,9.840766906738281,0.00019483722280710936,0.014269334264099598,-0.7103750705718994,-0.7036725282669067
1789658224818856338,1789658224832425893,0.012770400382578373,-0.03299019858241081,0.0904569998383522,0.1646013706922531,-0.2041056901216507,9.809642791748047,0.0012060680892318487,0.013333724811673164,-0.7110691666603088,-0.7029884457588196
1789658224832789223,1789658224836044879,0.012770400382578373,-0.03299019858241081,0.0904569998383522,0.1646013706922531,-0.2041056901216507,9.809642791748047,0.0012060680892318487,0.013333724811673164,-0.7110691666603088,-0.7029884457588196
1789658224838279393,1789658224841786034,0.012770400382578373,-0.03299019858241081,0.0904569998383522,0.1646013706922531,-0.2041056901216507,9.809642791748047,0.0012060680892318487,0.013333724811673164,-0.7110691666603088,-0.7029884457588196
1789658224842818675,1789658224853793812,0.01383460033684969,-0.03086180053651333,0.09152120351791382,0.2041056901216507,-0.21009118854999542,9.823409080505371,-0.00013580979430116713,0.014593129977583885,-0.7117130160331726,-0.7023126482963562
1789658224853153221,1789658224855308461,0.01383460033684969,-0.03086180053651333,0.09152120351791382,0.2041056901216507,-0.21009118854999542,9.823409080505371,-0.00013580979430116713,0.014593129977583885,-0.7117130160331726,-0.7023126482963562
1789658224857856901,1789658224860002531,0.01383460033684969,-0.03086180053651333,0.09152120351791382,0.2041056901216507,-0.21009118854999542,9.823409080505371,-0.00013580979430116713,0.014593129977583885,-0.7117130160331726,-0.7023126482963562
1789658224862797363,1789658224873021211,0.010641999542713165,-0.029797600582242012,0.09258539974689484,0.19393032789230347,-0.2537853717803955,9.916184425354004,0.0007045032689347863,0.014143193140625954,-0.7124128937721252,-0.7016115784645081
1789658224873048154,1789658224877649007,0.010641999542713165,-0.029797600582242012,0.09258539974689484,0.19393032789230347,-0.2537853717803955,9.916184425354004,0.0007045032689347863,0.014143193140625954,-0.7124128937721252,-0.7016115784645081
1789658224880243796,1789658224883017147,0.010641999542713165,-0.029797600582242012,0.09258539974689484,0.19393032789230347,-0.2537853717803955,9.916184425354004,0.0007045032689347863,0.014143193140625954,-0.7124128937721252,-0.7016115784645081
1789658224883807341,1789658224893938287,0.011706200428307056,-0.029797600582242012,0.09258539974689484,0.11552023142576218,-0.21428105235099792,9.935338020324707,0.0020860556978732347,0.013060171157121658,-0.7131193280220032,-0.700911819934845
1789658224894736665,1789658224896972845,0.011706200428307056,-0.029797600582242012,0.09258539974689484,0.11552023142576218,-0.21428105235099792,9.935338020324707,0.0020860556978732347,0.013060171157121658,-0.7131193280220032,-0.700911819934845
1789658224898692538,1789658224901488630,0.011706200428307056,-0.029797600582242012,0.09258539974689484,0.11552023142576218,-0.21428105235099792,9.935338020324707,0.0020860556978732347,0.013060171157121658,-0.7131193280220032,-0.700911819934845
1789658224902792570,1789658224915398719,0.012770400382578373,-0.031925998628139496,0.09258539974689484,0.16879121959209442,-0.19572599232196808,9.913191795349121,0.0008329470292665064,0.01292483787983656,-0.713797926902771,-0.7002257108688354
1789658224915228896,1789658224918058504,0.012770400382578373,-0.031925998628139496,0.09258539974689484,0.16879121959209442,-0.19572599232196808,9.913191795349121,0.0008329470292665064,0.01292483787983656,-0.713797926902771,-0.7002257108688354
1789658224918991040,1789658224922099409,0.012770400382578373,-0.031925998628139496,0.09258539974689484,0.16879121959209442,-0.19572599232196808,9.913191795349121,0.0008329470292665064,0.01292483787983656,-0.713797926902771,-0.7002257108688354
1789658224922934488,1789658224925869460,0.012770400382578373,-0.031925998628139496,0.09258539974689484,0.16879121959209442,-0.19572599232196808,9.913191795349121,0.0008329470292665064,0.01292483787983656,-0.713797926902771,-0.7002257108688354
1789658224927926447,1789658224936416585,0.01383460033684969,-0.031925998628139496,0.09258539974689484,0.16160860657691956,-0.20530278980731964,9.91738224029541,0.0013493334408849478,0.013201522640883923,-0.7144765257835388,-0.699527382850647
1789658224936063903,1789658224939232471,0.01383460033684969,-0.031925998628139496,0.09258539974689484,0.16160860657691956,-0.20530278980731964,9.91738224029541,0.0013493334408849478,0.013201522640883923,-0.7144765257835388,-0.699527382850647
1789658224939802956,1789658224944097772,0.01383460033684969,-0.031925998628139496,0.09258539974689484,0.16160860657691956,-0.20530278980731964,9.91738224029541,0.0013493334408849478,0.013201522640883923,-0.7144765257835388,-0.699527382850647
1789658224945057918,1789658224957163116,0.014898800291121006,-0.029797600582242012,0.09152120351791382,0.1256955862045288,-0.2172738015651703,9.943717956542969,0.0003073539992328733,0.013370942324399948,-0.7151426076889038,-0.6988444328308105
1789658224957950976,1789658224962124206,0.014898800291121006,-0.029797600582242012,0.09152120351791382,0.1256955862045288,-0.2172738015651703,9.943717956542969,0.0003073539992328733,0.013370942324399948,-0.7151426076889038,-0.6988444328308105
1789658224963242880,1789658224966385283,0.014898800291121006,-0.029797600582242012,0.09152120351791382,0.1256955862045288,-0.2172738015651703,9.943717956542969,0.0003073539992328733,0.013370942324399948,-0.7151426076889038,-0.6988444328308105
1789658224967756294,1789658224978493370,0.012770400382578373,-0.031925998628139496,0.09258539974689484,0.18375498056411743,-0.1951274424791336,9.881468772888184,0.0006611631833948195,0.01369937602430582,-0.7158165574073792,-0.6981474161148071
1789658224979545122,1789658224983818180,0.012770400382578373,-0.031925998628139496,0.09258539974689484,0.18375498056411743,-0.1951274424791336,9.881468772888184,0.0006611631833948195,0.01369937602430582,-0.7158165574073792,-0.6981474161148071
1789658224984351592,1789658224988022742,0.012770400382578373,-0.031925998628139496,0.09258539974689484,0.18375498056411743,-0.1951274424791336,9.881468772888184,0.0006611631833948195,0.01369937602430582,-0.7158165574073792,-0.6981474161148071
1789658224988131458,1789658224998902273,0.012770400382578373,-0.03299019858241081,0.09258539974689484,0.13168108463287354,-0.2041056901216507,9.940126419067383,0.0019567226991057396,0.012847422622144222,-0.7165193557739258,-0.6974400877952576
1789658224999679819,1789658225002934234,0.012770400382578373,-0.03299019858241081,0.09258539974689484,0.13168108463287354,-0.2041056901216507,9.940126419067383,0.0019567226991057396,0.012847422622144222,-0.7165193557739258,-0.6974400877952576
1789658225003949247,1789658225005978348,0.012770400382578373,-0.03299019858241081,0.09258539974689484,0.13168108463287354,-0.2041056901216507,9.940126419067383,0.0019567226991057396,0.012847422622144222,-0.7165193557739258,-0.6974400877952576
1789658225008570896,1789658225020657763,0.012770400382578373,-0.03086180053651333,0.09364960342645645,0.181959331035614,-0.16519992053508759,9.873088836669922,0.0011187876807525754,0.013952667824923992,-0.7171855568885803,-0.6967355608940125
1789658225020231326,1789658225023597624,0.012770400382578373,-0.03086180053651333,0.09364960342645645,0.181959331035614,-0.16519992053508759,9.873088836669922,0.0011187876807525754,0.013952667824923992,-0.7171855568885803,-0.6967355608940125
1789658225024010877,1789658225027135448,0.012770400382578373,-0.03086180053651333,0.09364960342645645,0.181959331035614,-0.16519992053508759,9.873088836669922,0.0011187876807525754,0.013952667824923992,-0.7171855568885803,-0.6967355608940125
1789658225027791668,1789658225041088648,0.011706200428307056,-0.031925998628139496,0.09258539974689484,0.19273322820663452,-0.22625206410884857,9.925761222839355,0.0014493995113298297,0.01368107832968235,-0.7178753614425659,-0.6960294842720032
1789658225042062145,1789658225045245732,0.011706200428307056,-0.031925998628139496,0.09258539974689484,0.19273322820663452,-0.22625206410884857,9.925761222839355,0.0014493995113298297,0.01368107832968235,-0.7178753614425659,-0.6960294842720032
1789658225048165464,1789658225050699571,0.011706200428307056,-0.031925998628139496,0.09258539974689484,0.19273322820663452,-0.22625206410884857,9.925761222839355,0.0014493995113298297,0.01368107832968235,-0.7178753614425659,-0.6960294842720032
1789658225052786131,1789658225061172869,0.014898800291121006,-0.03086180053651333,0.09258539974689484,0.10714052617549896,-0.228047713637352,9.996989250183105,0.002698001218959689,0.013936862349510193,-0.7185555696487427,-0.6953184604644775
1789658225061104836,1789658225064092786,0.014898800291121006,-0.03086180053651333,0.09258539974689484,0.10714052617549896,-0.228047713637352,9.996989250183105,0.002698001218959689,0.013936862349510193,-0.7185555696487427,-0.6953184604644775
1789658225064705638,1789658225067881373,0.014898800291121006,-0.03086180053651333,0.09258539974689484,0.10714052617549896,-0.228047713637352,9.996989250183105,0.002698001218959689,0.013936862349510193,-0.7185555696487427,-0.6953184604644775
1789658225068714934,1789658225070895211,0.014898800291121006,-0.03086180053651333,0.09258539974689484,0.10714052617549896,-0.228047713637352,9.996989250183105,0.002698001218959689,0.013936862349510193,-0.7185555696487427,-0.6953184604644775
1789658225082220142,1789658225086478942,0.012770400382578373,-0.029797600582242012,0.09364960342645645,0.22086510062217712,-0.1975216418504715,9.907206535339355,0.0009079384617507458,0.013418728485703468,-0.7192302346229553,-0.6946353912353516
1789658225085998268,1789658225090076634,0.012770400382578373,-0.029797600582242012,0.09364960342645645,0.22086510062217712,-0.1975216418504715,9.907206535339355,0.0009079384617507458,0.013418728485703468,-0.7192302346229553,-0.6946353912353516
1789658225090023896,1789658225093318810,0.012770400382578373,-0.029797600582242012,0.09364960342645645,0.22086510062217712,-0.1975216418504715,9.907206535339355,0.0009079384617507458,0.013418728485703468,-0.7192302346229553,-0.6946353912353516
1789658225094009972,1789658225103262083,0.012770400382578373,-0.031925998628139496,0.09364960342645645,0.18495208024978638,-0.19452887773513794,9.960477828979492,0.0010938929626718163,0.01303084660321474,-0.7199199795722961,-0.6939276456832886
1789658225104096459,1789658225106212351,0.012770400382578373,-0.031925998628139496,0.09364960342645645,0.18495208024978638,-0.19452887773513794,9.960477828979492,0.0010938929626718163,0.01303084660321474,-0.7199199795722961,-0.6939276456832886
1789658225107966801,1789658225110376619,0.012770400382578373,-0.031925998628139496,0.09364960342645645,0.18495208024978638,-0.19452887773513794,9.960477828979492,0.0010938929626718163,0.01303084660321474,-0.7199199795722961,-0.6939276456832886
1789658225112837990,1789658225124578859,0.01383460033684969,-0.03086180053651333,0.09258539974689484,0.22744916379451752,-0.20111294090747833,9.866504669189453,3.696026396937668e-05,0.014819803647696972,-0.7205724716186523,-0.693215012550354
1789658225124613894,1789658225127049711,0.01383460033684969,-0.03086180053651333,0.09258539974689484,0.22744916379451752,-0.20111294090747833,9.866504669189453,3.696026396937668e-05,0.014819803647696972,-0.7205724716186523,-0.693215012550354
1789658225127667341,1789658225130886499,0.01383460033684969,-0.03086180053651333,0.09258539974689484,0.22744916379451752,-0.20111294090747833,9.866504669189453,3.696026396937668e-05,0.014819803647696972,-0.7205724716186523,-0.693215012550354
1789658225132758257,1789658225145580358,0.01383460033684969,-0.029797600582242012,0.09152120351791382,0.20889408886432648,-0.17657236754894257,9.869498252868652,8.163624443113804e-05,0.013960754498839378,-0.7212553024291992,-0.692522406578064
1789658225145383500,1789658225148214663,0.01383460033684969,-0.029797600582242012,0.09152120351791382,0.20889408886432648,-0.17657236754894257,9.869498252868652,8.163624443113804e-05,0.013960754498839378,-0.7212553024291992,-0.692522406578064
1789658225149510733,1789658225153826104,0.01383460033684969,-0.029797600582242012,0.09152120351791382,0.20889408886432648,-0.17657236754894257,9.869498252868652,8.163624443113804e-05,0.013960754498839378,-0.7212553024291992,-0.692522406578064
1789658225153378779,1789658225166513676,0.012770400382578373,-0.028733400627970695,0.09258539974689484,0.0586579404771328,-0.22325929999351501,9.950302124023438,0.0016909987898543477,0.013364116661250591,-0.7219475507736206,-0.6918104290962219
1789658225167080198,1789658225172083453,0.012770400382578373,-0.028733400627970695,0.09258539974689484,0.0586579404771328,-0.22325929999351501,9.950302124023438,0.0016909987898543477,0.013364116661250591,-0.7219475507736206,-0.6918104290962219
1789658225172594774,1789658225175657331,0.012770400382578373,-0.028733400627970695,0.09258539974689484,0.0586579404771328,-0.22325929999351501,9.950302124023438,0.0016909987898543477,0.013364116661250591,-0.7219475507736206,-0.6918104290962219
1789658225187253042,1789658225192549391,0.012770400382578373,-0.029797600582242012,0.09258539974689484,0.21188685297966003,-0.18614917993545532,9.840168952941895,0.0007380313472822309,0.014730431139469147,-0.7225943207740784,-0.6911088228225708
1789658225190965079,1789658225195723534,0.012770400382578373,-0.029797600582242012,0.09258539974689484,0.21188685297966003,-0.18614917993545532,9.840168952941895,0.0007380313472822309,0.014730431139469147,-0.7225943207740784,-0.6911088228225708
1789658225195922800,1789658225208558467,0.01383460033684969,-0.03299019858241081,0.09258539974689484,0.0999579206109047,-0.21308395266532898,9.898826599121094,0.0017138385446742177,0.013220706023275852,-0.7232925295829773,-0.6904066801071167
1789658225209513669,1789658225212256616,0.01383460033684969,-0.03299019858241081,0.09258539974689484,0.0999579206109047,-0.21308395266532898,9.898826599121094,0.0017138385446742177,0.013220706023275852,-0.7232925295829773,-0.6904066801071167
1789658225213470636,1789658225218222702,0.01383460033684969,-0.03299019858241081,0.09258539974689484,0.0999579206109047,-0.21308395266532898,9.898826599121094,0.0017138385446742177,0.013220706023275852,-0.7232925295829773,-0.6904066801071167
1789658225217862853,1789658225229697143,0.01383460033684969,-0.031925998628139496,0.09258539974689484,0.13527239859104156,-0.1777694672346115,9.769539833068848,0.00037075852742418647,0.012645931914448738,-0.7239566445350647,-0.6897231936454773
1789658225229716216,1789658225233284280,0.01383460033684969,-0.031925998628139496,0.09258539974689484,0.13527239859104156,-0.1777694672346115,9.769539833068848,0.00037075852742418647,0.012645931914448738,-0.7239566445350647,-0.6897231936454773
1789658225233616815,1789658225236249565,0.01383460033684969,-0.031925998628139496,0.09258539974689484,0.13527239859104156,-0.1777694672346115,9.769539833068848,0.00037075852742418647,0.012645931914448738,-0.7239566445350647,-0.6897231936454773
1789658225237765955,1789658225249391869,0.011706200428307056,-0.03086180053651333,0.09364960342645645,0.23283611238002777,-0.23163901269435883,9.783306121826172,0.0010275519452989101,0.01276335958391428,-0.7246378660202026,-0.6890047788619995
1789658225249268672,1789658225253208695,0.011706200428307056,-0.03086180053651333,0.09364960342645645,0.23283611238002777,-0.23163901269435883,9.783306121826172,0.0010275519452989101,0.01276335958391428,-0.7246378660202026,-0.6890047788619995
1789658225254991347,1789658225259625828,0.011706200428307056,-0.03086180053651333,0.09364960342645645,0.23283611238002777,-0.23163901269435883,9.783306121826172,0.0010275519452989101,0.01276335958391428,-0.7246378660202026,-0.6890047788619995
1789658225259818909,1789658225270788325,0.012770400382578373,-0.029797600582242012,0.09258539974689484,0.10773907601833344,-0.21009118854999542,9.827000617980957,0.002006686059758067,0.013386794365942478,-0.7253096699714661,-0.6882834434509277
1789658225270983110,1789658225274282134,0.012770400382578373,-0.029797600582242012,0.09258539974689484,0.10773907601833344,-0.21009118854999542,9.827000617980957,0.002006686059758067,0.013386794365942478,-0.7253096699714661,-0.6882834434509277
1789658225275783840,1789658225280738672,0.012770400382578373,-0.029797600582242012,0.09258539974689484,0.10773907601833344,-0.21009118854999542,9.827000617980957,0.002006686059758067,0.013386794365942478,-0.7253096699714661,-0.6882834434509277
1789658225284329883,1789658225291419828,0.011706200428307056,-0.029797600582242012,0.09152120351791382,0.18734627962112427,-0.20530278980731964,9.95449161529541,-0.00028723705327138305,0.013945416547358036,-0.7259491086006165,-0.6876007318496704
1789658225292566444,1789658225296321756,0.011706200428307056,-0.029797600582242012,0.09152120351791382,0.18734627962112427,-0.20530278980731964,9.95449161529541,-0.00028723705327138305,0.013945416547358036,-0.7259491086006165,-0.6876007318496704
1789658225296750545,1789658225301064693,0.011706200428307056,-0.029797600582242012,0.09152120351791382,0.18734627962112427,-0.20530278980731964,9.95449161529541,-0.00028723705327138305,0.013945416547358036,-0.7259491086006165,-0.6876007318496704
1789658225301984638,1789658225312290538,0.012770400382578373,-0.029797600582242012,0.0904569998383522,0.1777694672346115,-0.1777694672346115,9.847949981689453,-0.00013644102727994323,0.012910429388284683,-0.726618230342865,-0.6869138479232788
1789658225313064806,1789658225317452265,0.012770400382578373,-0.029797600582242012,0.0904569998383522,0.1777694672346115,-0.1777694672346115,9.847949981689453,-0.00013644102727994323,0.012910429388284683,-0.726618230342865,-0.6869138479232788
1789658225318245218,1789658225321549853,0.012770400382578373,-0.029797600582242012,0.0904569998383522,0.1777694672346115,-0.1777694672346115,9.847949981689453,-0.00013644102727994323,0.012910429388284683,-0.726618230342865,-0.6869138479232788
1789658225323334431,1789658225333893390,0.012770400382578373,-0.03299019858241081,0.0904569998383522,0.19273322820663452,-0.1693897694349289,9.792882919311523,-0.001353078056126833,0.013378984294831753,-0.7272555828094482,-0.6862288117408752
1789658225334022437,1789658225338046196,0.012770400382578373,-0.03299019858241081,0.0904569998383522,0.19273322820663452,-0.1693897694349289,9.792882919311523,-0.001353078056126833,0.013378984294831753,-0.7272555828094482,-0.6862288117408752
1789658225338832667,1789658225342159968,0.012770400382578373,-0.03299019858241081,0.0904569998383522,0.19273322820663452,-0.1693897694349289,9.792882919311523,-0.001353078056126833,0.013378984294831753,-0.7272555828094482,-0.6862288117408752
1789658225343610084,1789658225354055143,0.011706200428307056,-0.031925998628139496,0.09152120351791382,0.272938996553421,-0.21128830313682556,9.835380554199219,-0.0007336974376812577,0.014479540288448334,-0.7279126048088074,-0.6855104565620422
1789658225354791524,1789658225358094678,0.011706200428307056,-0.031925998628139496,0.09152120351791382,0.272938996553421,-0.21128830313682556,9.835380554199219,-0.0007336974376812577,0.014479540288448334,-0.7279126048088074,-0.6855104565620422
1789658225358919739,1789658225360912416,0.011706200428307056,-0.031925998628139496,0.09152120351791382,0.272938996553421,-0.21128830313682556,9.835380554199219,-0.0007336974376812577,0.014479540288448334,-0.7279126048088074,-0.6855104565620422
1789658225362771471,1789658225375337402,0.009577799588441849,-0.03299019858241081,0.09152120351791382,0.13766659796237946,-0.21607670187950134,9.928155899047852,0.0006104700150899589,0.013404589146375656,-0.7285988926887512,-0.6848029494285583
1789658225375438433,1789658225377848437,0.009577799588441849,-0.03299019858241081,0.09152120351791382,0.13766659796237946,-0.21607670187950134,9.928155899047852,0.0006104700150899589,0.013404589146375656,-0.7285988926887512,-0.6848029494285583
1789658225379243297,1789658225383136527,0.009577799588441849,-0.03299019858241081,0.09152120351791382,0.13766659796237946,-0.21607670187950134,9.928155899047852,0.0006104700150899589,0.013404589146375656,-0.7285988926887512,-0.6848029494285583
1789658225383036681,1789658225396812817,0.011706200428307056,-0.03086180053651333,0.0904569998383522,0.16879121959209442,-0.18794482946395874,9.876680374145508,-0.00018797916709445417,0.014082047156989574,-0.7292444109916687,-0.6841019988059998
1789658225396731118,1789658225400466468,0.011706200428307056,-0.03086180053651333,0.0904569998383522,0.16879121959209442,-0.18794482946395874,9.876680374145508,-0.00018797916709445417,0.014082047156989574,-0.7292444109916687,-0.6841019988059998
1789658225400778227,1789658225402905507,0.011706200428307056,-0.03086180053651333,0.0904569998383522,0.16879121959209442,-0.18794482946395874,9.876680374145508,-0.00018797916709445417,0.014082047156989574,-0.7292444109916687,-0.6841019988059998
1789658225403689256,1789658225418082466,0.01383460033684969,-0.031925998628139496,0.09152120351791382,0.16759411990642548,-0.2412158101797104,9.888651847839355,0.0011615711264312267,0.013907448388636112,-0.7299131155014038,-0.6833912134170532
1789658225418337173,1789658225421677973,0.01383460033684969,-0.031925998628139496,0.09152120351791382,0.16759411990642548,-0.2412158101797104,9.888651847839355,0.0011615711264312267,0.013907448388636112,-0.7299131155014038,-0.6833912134170532
1789658225424006000,1789658225427407148,0.01383460033684969,-0.031925998628139496,0.09152120351791382,0.16759411990642548,-0.2412158101797104,9.888651847839355,0.0011615711264312267,0.013907448388636112,-0.7299131155014038,-0.6833912134170532
1789658225428480398,1789658225437909388,0.01383460033684969,-0.031925998628139496,0.09152120351791382,0.13347674906253815,-0.20111294090747833,9.88086986541748,5.362486626836471e-05,0.013314219191670418,-0.7305664420127869,-0.6827054619789124
1789658225437139989,1789658225439974708,0.01383460033684969,-0.031925998628139496,0.09152120351791382,0.13347674906253815,-0.20111294090747833,9.88086986541748,5.362486626836471e-05,0.013314219191670418,-0.7305664420127869,-0.6827054619789124
1789658225440772790,1789658225445792211,0.01383460033684969,-0.031925998628139496,0.09152120351791382,0.13347674906253815,-0.20111294090747833,9.88086986541748,5.362486626836471e-05,0.013314219191670418,-0.7305664420127869,-0.6827054619789124
1789658225445125640,1789658225449394661,0.01383460033684969,-0.031925998628139496,0.09152120351791382,0.13347674906253815,-0.20111294090747833,9.88086986541748,5.362486626836471e-05,0.013314219191670418,-0.7305664420127869,-0.6827054619789124
1789658225451269901,1789658225458593220,0.01383460033684969,-0.03086180053651333,0.0904569998383522,0.20769698917865753,-0.21128830313682556,9.894038200378418,-0.0012175922747701406,0.014141415245831013,-0.7312021851539612,-0.6820067763328552
1789658225458774358,1789658225461575708,0.01383460033684969,-0.03086180053651333,0.0904569998383522,0.20769698917865753,-0.21128830313682556,9.894038200378418,-0.0012175922747701406,0.014141415245831013,-0.7312021851539612,-0.6820067763328552
1789658225462738842,1789658225465166178,0.01383460033684969,-0.03086180053651333,0.0904569998383522,0.20769698917865753,-0.21128830313682556,9.894038200378418,-0.0012175922747701406,0.014141415245831013,-0.7312021851539612,-0.6820067763328552
1789658225467769929,1789658225479455024,0.012770400382578373,-0.028733400627970695,0.0904569998383522,0.2124854028224945,-0.23523031175136566,9.962272644042969,-4.482246731640771e-05,0.014704748056828976,-0.7318618893623352,-0.6812881231307983
1789658225481508086,1789658225485843529,0.012770400382578373,-0.028733400627970695,0.0904569998383522,0.2124854028224945,-0.23523031175136566,9.962272644042969,-4.482246731640771e-05,0.014704748056828976,-0.7318618893623352,-0.6812881231307983
1789658225486072460,1789658225489603693,0.012770400382578373,-0.028733400627970695,0.0904569998383522,0.2124854028224945,-0.23523031175136566,9.962272644042969,-4.482246731640771e-05,0.014704748056828976,-0.7318618893623352,-0.6812881231307983
1789658225490038833,1789658225500045436,0.012770400382578373,-0.029797600582242012,0.09152120351791382,0.14006079733371735,-0.2190694510936737,9.971251487731934,0.0007844422943890095,0.013314642943441868,-0.732531726360321,-0.6805959343910217
1789658225500845684,1789658225502964576,0.012770400382578373,-0.029797600582242012,0.09152120351791382,0.14006079733371735,-0.2190694510936737,9.971251487731934,0.0007844422943890095,0.013314642943441868,-0.732531726360321,-0.6805959343910217
1789658225503775435,1789658225508069399,0.012770400382578373,-0.029797600582242012,0.09152120351791382,0.14006079733371735,-0.2190694510936737,9.971251487731934,0.0007844422943890095,0.013314642943441868,-0.732531726360321,-0.6805959343910217
1789658225507958035,1789658225521885070,0.012770400382578373,-0.03086180053651333,0.09364960342645645,0.2172738015651703,-0.17298106849193573,9.825204849243164,0.0009521617321297526,0.012858673930168152,-0.7332077622413635,-0.6798760890960693
1789658225522377337,1789658225526521458,0.012770400382578373,-0.03086180053651333,0.09364960342645645,0.2172738015651703,-0.17298106849193573,9.825204849243164,0.0009521617321297526,0.012858673930168152,-0.7332077622413635,-0.6798760890960693
1789658225526858586,1789658225530147407,0.012770400382578373,-0.03086180053651333,0.09364960342645645,0.2172738015651703,-0.17298106849193573,9.825204849243164,0.0009521617321297526,0.012858673930168152,-0.7332077622413635,-0.6798760890960693
1789658225530656173,1789658225542081302,0.010641999542713165,-0.03086180053651333,0.09258539974689484,0.12449848651885986,-0.2256534993648529,10.014945983886719,0.001869958476163447,0.012020273134112358,-0.733887255191803,-0.6791560649871826
1789658225542790723,1789658225547234289,0.010641999542713165,-0.03086180053651333,0.09258539974689484,0.12449848651885986,-0.2256534993648529,10.014945983886719,0.001869958476163447,0.012020273134112358,-0.733887255191803,-0.6791560649871826
1789658225548045426,1789658225551111260,0.010641999542713165,-0.03086180053651333,0.09258539974689484,0.12449848651885986,-0.2256534993648529,10.014945983886719,0.001869958476163447,0.012020273134112358,-0.733887255191803,-0.6791560649871826
1789658225556372796,1789658225563974044,0.012770400382578373,-0.029797600582242012,0.09258539974689484,0.1801636815071106,-0.1885433793067932,10.018536567687988,0.0001947900018421933,0.013179099187254906,-0.7345261573791504,-0.6784461140632629
1789658225564062724,1789658225567210239,0.012770400382578373,-0.029797600582242012,0.09258539974689484,0.1801636815071106,-0.1885433793067932,10.018536567687988,0.0001947900018421933,0.013179099187254906,-0.7345261573791504,-0.6784461140632629
1789658225567662378,1789658225570256833,0.012770400382578373,-0.029797600582242012,0.09258539974689484,0.1801636815071106,-0.1885433793067932,10.018536567687988,0.0001947900018421933,0.013179099187254906,-0.7345261573791504,-0.6784461140632629
1789658225572935950,1789658225584239642,0.011706200428307056,-0.03086180053651333,0.09152120351791382,0.14065934717655182,-0.25917232036590576,9.896432876586914,0.0016326539916917682,0.013009672984480858,-0.735198974609375,-0.6777182221412659
1789658225584319582,1789658225586217357,0.011706200428307056,-0.03086180053651333,0.09152120351791382,0.14065934717655182,-0.25917232036590576,9.896432876586914,0.0016326539916917682,0.013009672984480858,-0.735198974609375,-0.6777182221412659
1789658225588594974,1789658225591540112,0.011706200428307056,-0.03086180053651333,0.09152120351791382,0.14065934717655182,-0.25917232036590576,9.896432876586914,0.0016326539916917682,0.013009672984480858,-0.735198974609375,-0.6777182221412659
1789658225592815183,1789658225605089428,0.011706200428307056,-0.028733400627970695,0.09258539974689484,0.030526071786880493,-0.22206220030784607,9.8784761428833,0.0005482428823597729,0.012976452708244324,-0.7358472943305969,-0.6770164966583252
1789658225605177460,1789658225607176284,0.011706200428307056,-0.028733400627970695,0.09258539974689484,0.030526071786880493,-0.22206220030784607,9.8784761428833,0.0005482428823597729,0.012976452708244324,-0.7358472943305969,-0.6770164966583252
1789658225607797006,1789658225611103382,0.011706200428307056,-0.028733400627970695,0.09258539974689484,0.030526071786880493,-0.22206220030784607,9.8784761428833,0.0005482428823597729,0.012976452708244324,-0.7358472943305969,-0.6770164966583252
1789658225612965215,1789658225625894550,0.011706200428307056,-0.031925998628139496,0.09258539974689484,0.17477671802043915,-0.2190694510936737,9.95329475402832,0.0005555740208365023,0.013740630820393562,-0.7365022897720337,-0.676288902759552
1789658225625465576,1789658225628440323,0.011706200428307056,-0.031925998628139496,0.09258539974689484,0.17477671802043915,-0.2190694510936737,9.95329475402832,0.0005555740208365023,0.013740630820393562,-0.7365022897720337,-0.676288902759552
1789658225628751286,1789658225633219703,0.011706200428307056,-0.031925998628139496,0.09258539974689484,0.17477671802043915,-0.2190694510936737,9.95329475402832,0.0005555740208365023,0.013740630820393562,-0.7365022897720337,-0.676288902759552
1789658225633921938,1789658225646465982,0.012770400382578373,-0.03086180053651333,0.09258539974689484,0.11312603205442429,-0.2064998894929886,9.895833969116211,0.0019399996381253004,0.013116181828081608,-0.7371801137924194,-0.6755598783493042
1789658225647459293,1789658225651206271,0.012770400382578373,-0.03086180053651333,0.09258539974689484,0.11312603205442429,-0.2064998894929886,9.895833969116211,0.0019399996381253004,0.013116181828081608,-0.7371801137924194,-0.6755598783493042
1789658225652102829,1789658225655069873,0.012770400382578373,-0.03086180053651333,0.09258539974689484,0.11312603205442429,-0.2064998894929886,9.895833969116211,0.0019399996381253004,0.013116181828081608,-0.7371801137924194,-0.6755598783493042
1789658225655964671,1789658225667888548,0.012770400382578373,-0.03086180053651333,0.09364960342645645,0.1256955862045288,-0.2346317619085312,9.914987564086914,0.0010437058517709374,0.013687516562640667,-0.7378321290016174,-0.6748382449150085
1789658225667785147,1789658225668843991,0.012770400382578373,-0.03086180053651333,0.09364960342645645,0.1256955862045288,-0.2346317619085312,9.914987564086914,0.0010437058517709374,0.013687516562640667,-0.7378321290016174,-0.6748382449150085
1789658225672750608,1789658225676287562,0.012770400382578373,-0.03086180053651333,0.09364960342645645,0.1256955862045288,-0.2346317619085312,9.914987564086914,0.0010437058517709374,0.013687516562640667,-0.7378321290016174,-0.6748382449150085
1789658225677757178,1789658225689248007,0.012770400382578373,-0.03086180053651333,0.09258539974689484,0.17657236754894257,-0.21966800093650818,9.967659950256348,0.0014360019704326987,0.013595481403172016,-0.7384943962097168,-0.6741145253181458
1789658225688345802,1789658225690040015,0.012770400382578373,-0.03086180053651333,0.09258539974689484,0.17657236754894257,-0.21966800093650818,9.967659950256348,0.0014360019704326987,0.013595481403172016,-0.7384943962097168,-0.6741145253181458
1789658225692779443,1789658225695015198,0.012770400382578373,-0.03086180053651333,0.09258539974689484,0.17657236754894257,-0.21966800093650818,9.967659950256348,0.0014360019704326987,0.013595481403172016,-0.7384943962097168,-0.6741145253181458
1789658225697750737,1789658225709196347,0.012770400382578373,-0.029797600582242012,0.09258539974689484,0.12030863016843796,-0.20530278980731964,9.870096206665039,0.000496819382533431,0.012785692699253559,-0.7391490936279297,-0.6734140515327454
1789658225709385057,1789658225714362500,0.012770400382578373,-0.029797600582242012,0.09258539974689484,0.12030863016843796,-0.20530278980731964,9.870096206665039,0.000496819382533431,0.012785692699253559,-0.7391490936279297,-0.6734140515327454
1789658225713286268,1789658225716663547,0.012770400382578373,-0.029797600582242012,0.09258539974689484,0.12030863016843796,-0.20530278980731964,9.870096206665039,0.000496819382533431,0.012785692699253559,-0.7391490936279297,-0.6734140515327454
1789658225718126681,1789658225730172717,0.011706200428307056,-0.031925998628139496,0.09364960342645645,0.1412578970193863,-0.23163901269435883,9.876081466674805,0.0006348807946778834,0.014085446484386921,-0.739800214767456,-0.6726725101470947
1789658225730105629,1789658225732195040,0.011706200428307056,-0.031925998628139496,0.09364960342645645,0.1412578970193863,-0.23163901269435883,9.876081466674805,0.0006348807946778834,0.014085446484386921,-0.739800214767456,-0.6726725101470947
1789658225732810318,1789658225737288216,0.011706200428307056,-0.031925998628139496,0.09364960342645645,0.1412578970193863,-0.23163901269435883,9.876081466674805,0.0006348807946778834,0.014085446484386921,-0.739800214767456,-0.6726725101470947
1789658225737880607,1789658225751742719,0.011706200428307056,-0.031925998628139496,0.09258539974689484,0.13766659796237946,-0.25498247146606445,9.920374870300293,0.0013975693145766854,0.013217573054134846,-0.7404733300209045,-0.6719480156898499
1789658225752368533,1789658225755316282,0.011706200428307056,-0.031925998628139496,0.09258539974689484,0.13766659796237946,-0.25498247146606445,9.920374870300293,0.0013975693145766854,0.013217573054134846,-0.7404733300209045,-0.6719480156898499
1789658225755986557,1789658225760151381,0.011706200428307056,-0.031925998628139496,0.09258539974689484,0.13766659796237946,-0.25498247146606445,9.920374870300293,0.0013975693145766854,0.013217573054134846,-0.7404733300209045,-0.6719480156898499
1789658225760729791,1789658225771014470,0.010641999542713165,-0.029797600582242012,0.09258539974689484,0.16160860657691956,-0.24420857429504395,9.915586471557617,0.0007715565152466297,0.014420806430280209,-0.7411037683486938,-0.6712287068367004
1789658225772471882,1789658225776184271,0.010641999542713165,-0.029797600582242012,0.09258539974689484,0.16160860657691956,-0.24420857429504395,9.915586471557617,0.0007715565152466297,0.014420806430280209,-0.7411037683486938,-0.6712287068367004
1789658225778309662,1789658225782758913,0.010641999542713165,-0.029797600582242012,0.09258539974689484,0.16160860657691956,-0.24420857429504395,9.915586471557617,0.0007715565152466297,0.014420806430280209,-0.7411037683486938,-0.6712287068367004
1789658225783807554,1789658225792857455,0.011706200428307056,-0.03086180053651333,0.09258539974689484,0.193331778049469,-0.24420857429504395,9.88386344909668,0.00042040672269649804,0.015509121119976044,-0.741743803024292,-0.6704973578453064
1789658225793610336,1789658225796997299,0.011706200428307056,-0.03086180053651333,0.09258539974689484,0.193331778049469,-0.24420857429504395,9.88386344909668,0.00042040672269649804,0.015509121119976044,-0.741743803024292,-0.6704973578453064
1789658225797960667,1789658225802192080,0.011706200428307056,-0.03086180053651333,0.09258539974689484,0.193331778049469,-0.24420857429504395,9.88386344909668,0.00042040672269649804,0.015509121119976044,-0.741743803024292,-0.6704973578453064
1789658225802868891,1789658225813233640,0.01383460033684969,-0.03086180053651333,0.09258539974689484,0.10235211998224258,-0.21667525172233582,9.829395294189453,0.00121383520308882,0.013889223337173462,-0.7424222826957703,-0.6697806715965271
1789658225814278910,1789658225819506356,0.01383460033684969,-0.03086180053651333,0.09258539974689484,0.10235211998224258,-0.21667525172233582,9.829395294189453,0.00121383520308882,0.013889223337173462,-0.7424222826957703,-0.6697806715965271
1789658225819114583,1789658225824049528,0.01383460033684969,-0.03086180053651333,0.09258539974689484,0.10235211998224258,-0.21667525172233582,9.829395294189453,0.00121383520308882,0.013889223337173462,-0.7424222826957703,-0.6697806715965271
1789658225823627183,1789658225834256341,0.012770400382578373,-0.029797600582242012,0.09258539974689484,0.15682020783424377,-0.2106897532939911,9.877279281616211,0.00017019508231896907,0.014180861413478851,-0.743064284324646,-0.6690632700920105
1789658225834883655,1789658225840427341,0.012770400382578373,-0.029797600582242012,0.09258539974689484,0.15682020783424377,-0.2106897532939911,9.877279281616211,0.00017019508231896907,0.014180861413478851,-0.743064284324646,-0.6690632700920105
1789658225839988719,1789658225843534525,0.012770400382578373,-0.029797600582242012,0.09258539974689484,0.15682020783424377,-0.2106897532939911,9.877279281616211,0.00017019508231896907,0.014180861413478851,-0.743064284324646,-0.6690632700920105
1789658225844876148,1789658225855892005,0.012770400382578373,-0.031925998628139496,0.09364960342645645,0.10953472554683685,-0.2346317619085312,9.779715538024902,0.0017953627975657582,0.01355223823338747,-0.7437437772750854,-0.6683183908462524
1789658225856956386,1789658225860081143,0.012770400382578373,-0.031925998628139496,0.09364960342645645,0.10953472554683685,-0.2346317619085312,9.779715538024902,0.0017953627975657582,0.01355223823338747,-0.7437437772750854,-0.6683183908462524
1789658225860909426,1789658225865393417,0.012770400382578373,-0.031925998628139496,0.09364960342645645,0.10953472554683685,-0.2346317619085312,9.779715538024902,0.0017953627975657582,0.01355223823338747,-0.7437437772750854,-0.6683183908462524
1789658225865616422,1789658225876385924,0.011706200428307056,-0.029797600582242012,0.09258539974689484,0.13946224749088287,-0.2472013235092163,9.834781646728516,0.0008190016960725188,0.014055376872420311,-0.7443899512290955,-0.6675903797149658
1789658225877052495,1789658225880824416,0.011706200428307056,-0.029797600582242012,0.09258539974689484,0.13946224749088287,-0.2472013235092163,9.834781646728516,0.0008190016960725188,0.014055376872420311,-0.7443899512290955,-0.6675903797149658
1789658225883240031,1789658225885772471,0.011706200428307056,-0.029797600582242012,0.09258539974689484,0.13946224749088287,-0.2472013235092163,9.834781646728516,0.0008190016960725188,0.014055376872420311,-0.7443899512290955,-0.6675903797149658
1789658225888479401,1789658225897049128,0.012770400382578373,-0.02766920067369938,0.09258539974689484,0.19273322820663452,-0.2388216108083725,9.99339771270752,0.0004073125892318785,0.013451118022203445,-0.745042622089386,-0.6668747663497925
1789658225897348906,1789658225899099394,0.012770400382578373,-0.02766920067369938,0.09258539974689484,0.19273322820663452,-0.2388216108083725,9.99339771270752,0.0004073125892318785,0.013451118022203445,-0.745042622089386,-0.6668747663497925
1789658225899637898,1789658225901100607,0.012770400382578373,-0.02766920067369938,0.09258539974689484,0.19273322820663452,-0.2388216108083725,9.99339771270752,0.0004073125892318785,0.013451118022203445,-0.745042622089386,-0.6668747663497925
1789658225902722250,1789658225905979259,0.012770400382578373,-0.02766920067369938,0.09258539974689484,0.19273322820663452,-0.2388216108083725,9.99339771270752,0.0004073125892318785,0.013451118022203445,-0.745042622089386,-0.6668747663497925
1789658225907822333,1789658225918269780,0.012770400382578373,-0.03086180053651333,0.09258539974689484,0.17836801707744598,-0.20231004059314728,9.870096206665039,0.000739323440939188,0.013273010030388832,-0.7457007169723511,-0.6661419868469238
1789658225918261725,1789658225920250013,0.012770400382578373,-0.03086180053651333,0.09258539974689484,0.17836801707744598,-0.20231004059314728,9.870096206665039,0.000739323440939188,0.013273010030388832,-0.7457007169723511,-0.6661419868469238
1789658225922934241,1789658225927192652,0.012770400382578373,-0.03086180053651333,0.09258539974689484,0.17836801707744598,-0.20231004059314728,9.870096206665039,0.000739323440939188,0.013273010030388832,-0.7457007169723511,-0.6661419868469238
1789658225927990123,1789658225938188233,0.010641999542713165,-0.03086180053651333,0.09258539974689484,0.2064998894929886,-0.21787235140800476,9.873687744140625,-0.0005457728402689099,0.015180827118456364,-0.7463129162788391,-0.6654154062271118
1789658225938547322,1789658225942346372,0.010641999542713165,-0.03086180053651333,0.09258539974689484,0.2064998894929886,-0.21787235140800476,9.873687744140625,-0.0005457728402689099,0.015180827118456364,-0.7463129162788391,-0.6654154062271118
1789658225943142658,1789658225945404744,0.010641999542713165,-0.03086180053651333,0.09258539974689484,0.2064998894929886,-0.21787235140800476,9.873687744140625,-0.0005457728402689099,0.015180827118456364,-0.7463129162788391,-0.6654154062271118
1789658225947868874,1789658225959062943,0.010641999542713165,-0.029797600582242012,0.09364960342645645,0.18555063009262085,-0.21607670187950134,9.927556991577148,0.00043890951201319695,0.01486870739609003,-0.7469790577888489,-0.664674699306488
1789658225959275541,1789658225962005507,0.010641999542713165,-0.029797600582242012,0.09364960342645645,0.18555063009262085,-0.21607670187950134,9.927556991577148,0.00043890951201319695,0.01486870739609003,-0.7469790577888489,-0.664674699306488
1789658225962749259,1789658225966364801,0.010641999542713165,-0.029797600582242012,0.09364960342645645,0.18555063009262085,-0.21607670187950134,9.927556991577148,0.00043890951201319695,0.01486870739609003,-0.7469790577888489,-0.664674699306488
1789658225967708924,1789658225980397774,0.012770400382578373,-0.028733400627970695,0.09258539974689484,0.17717091739177704,-0.2238578498363495,9.970054626464844,-0.00014203466707840562,0.014122839085757732,-0.747628390789032,-0.6639605760574341
1789658225982490741,1789658225985622627,0.012770400382578373,-0.028733400627970695,0.09258539974689484,0.17717091739177704,-0.2238578498363495,9.970054626464844,-0.00014203466707840562,0.014122839085757732,-0.747628390789032,-0.6639605760574341
1789658225985880426,1789658225991047449,0.012770400382578373,-0.028733400627970695,0.09258539974689484,0.17717091739177704,-0.2238578498363495,9.970054626464844,-0.00014203466707840562,0.014122839085757732,-0.747628390789032,-0.6639605760574341
1789658225990533147,1789658226001710383,0.012770400382578373,-0.029797600582242012,0.09152120351791382,0.228047713637352,-0.24839842319488525,9.865307807922363,-0.001515164040029049,0.014453377574682236,-0.7482511401176453,-0.6632498502731323
1789658226001810377,1789658226002926366,0.012770400382578373,-0.029797600582242012,0.09152120351791382,0.228047713637352,-0.24839842319488525,9.865307807922363,-0.001515164040029049,0.014453377574682236,-0.7482511401176453,-0.6632498502731323
1789658226003856014,1789658226005984220,0.012770400382578373,-0.029797600582242012,0.09152120351791382,0.228047713637352,-0.24839842319488525,9.865307807922363,-0.001515164040029049,0.014453377574682236,-0.7482511401176453,-0.6632498502731323
1789658226008079409,1789658226011062823,0.012770400382578373,-0.029797600582242012,0.09152120351791382,0.228047713637352,-0.24839842319488525,9.865307807922363,-0.001515164040029049,0.014453377574682236,-0.7482511401176453,-0.6632498502731323
1789658226012757055,1789658226023105749,0.01383460033684969,-0.031925998628139496,0.09152120351791382,0.1759738177061081,-0.20350714027881622,9.98801040649414,-1.2293760846660007e-05,0.013536086305975914,-0.7489163279533386,-0.6625197529792786
1789658226022456122,1789658226024099949,0.01383460033684969,-0.031925998628139496,0.09152120351791382,0.1759738177061081,-0.20350714027881622,9.98801040649414,-1.2293760846660007e-05,0.013536086305975914,-0.7489163279533386,-0.6625197529792786
1789658226024939417,1789658226027046513,0.01383460033684969,-0.031925998628139496,0.09152120351791382,0.1759738177061081,-0.20350714027881622,9.98801040649414,-1.2293760846660007e-05,0.013536086305975914,-0.7489163279533386,-0.6625197529792786
1789658226027753730,1789658226031503154,0.01383460033684969,-0.031925998628139496,0.09152120351791382,0.1759738177061081,-0.20350714027881622,9.98801040649414,-1.2293760846660007e-05,0.013536086305975914,-0.7489163279533386,-0.6625197529792786
1789658226032689175,1789658226043224192,0.011706200428307056,-0.03086180053651333,0.09364960342645645,0.21188685297966003,-0.16879121959209442,9.90361499786377,-0.0005242694751359522,0.014644106850028038,-0.7495543956756592,-0.6617740988731384
1789658226043292818,1789658226045366508,0.011706200428307056,-0.03086180053651333,0.09364960342645645,0.21188685297966003,-0.16879121959209442,9.90361499786377,-0.0005242694751359522,0.014644106850028038,-0.7495543956756592,-0.6617740988731384
1789658226047752662,1789658226050280492,0.011706200428307056,-0.03086180053651333,0.09364960342645645,0.21188685297966003,-0.16879121959209442,9.90361499786377,-0.0005242694751359522,0.014644106850028038,-0.7495543956756592,-0.6617740988731384
1789658226052766528,1789658226064299170,0.011706200428307056,-0.03086180053651333,0.09152120351791382,0.1909375786781311,-0.1867477297782898,9.985017776489258,-8.051177928791731e-07,0.01419027429074049,-0.7502117156982422,-0.6610388159751892
1789658226064204750,1789658226066474651,0.011706200428307056,-0.03086180053651333,0.09152120351791382,0.1909375786781311,-0.1867477297782898,9.985017776489258,-8.051177928791731e-07,0.01419027429074049,-0.7502117156982422,-0.6610388159751892
1789658226067776203,1789658226071266919,0.011706200428307056,-0.03086180053651333,0.09152120351791382,0.1909375786781311,-0.1867477297782898,9.985017776489258,-8.051177928791731e-07,0.01419027429074049,-0.7502117156982422,-0.6610388159751892
1789658226073377571,1789658226086648776,0.011706200428307056,-0.031925998628139496,0.09258539974689484,0.07661445438861847,-0.22685061395168304,9.962871551513672,0.001344445627182722,0.013060246594250202,-0.7508740425109863,-0.6603085398674011
1789658226086157046,1789658226089397278,0.011706200428307056,-0.031925998628139496,0.09258539974689484,0.07661445438861847,-0.22685061395168304,9.962871551513672,0.001344445627182722,0.013060246594250202,-0.7508740425109863,-0.6603085398674011
1789658226090450863,1789658226094267227,0.011706200428307056,-0.031925998628139496,0.09258539974689484,0.07661445438861847,-0.22685061395168304,9.962871551513672,0.001344445627182722,0.013060246594250202,-0.7508740425109863,-0.6603085398674011
1789658226095244983,1789658226106762182,0.012770400382578373,-0.03405439853668213,0.0904569998383522,0.20949263870716095,-0.22026655077934265,9.877877235412598,-0.0003430974029470235,0.014737074263393879,-0.7514752745628357,-0.6595901250839233
1789658226107726346,1789658226110981818,0.012770400382578373,-0.03405439853668213,0.0904569998383522,0.20949263870716095,-0.22026655077934265,9.877877235412598,-0.0003430974029470235,0.014737074263393879,-0.7514752745628357,-0.6595901250839233
1789658226112979087,1789658226116027386,0.012770400382578373,-0.03405439853668213,0.0904569998383522,0.20949263870716095,-0.22026655077934265,9.877877235412598,-0.0003430974029470235,0.014737074263393879,-0.7514752745628357,-0.6595901250839233
1789658226117726340,1789658226126394468,0.01383460033684969,-0.03086180053651333,0.0904569998383522,0.13946224749088287,-0.22445639967918396,9.944914817810059,0.0008732581045478582,0.01355099305510521,-0.7521271109580994,-0.658871591091156
1789658226126166630,1789658226129021200,0.01383460033684969,-0.03086180053651333,0.0904569998383522,0.13946224749088287,-0.22445639967918396,9.944914817810059,0.0008732581045478582,0.01355099305510521,-0.7521271109580994,-0.658871591091156
1789658226129819800,1789658226133241762,0.01383460033684969,-0.03086180053651333,0.0904569998383522,0.13946224749088287,-0.22445639967918396,9.944914817810059,0.0008732581045478582,0.01355099305510521,-0.7521271109580994,-0.658871591091156
1789658226133772119,1789658226136055130,0.01383460033684969,-0.03086180053651333,0.0904569998383522,0.13946224749088287,-0.22445639967918396,9.944914817810059,0.0008732581045478582,0.01355099305510521,-0.7521271109580994,-0.658871591091156
1789658226137678959,1789658226147409302,0.01383460033684969,-0.03086180053651333,0.09258539974689484,0.16400282084941864,-0.20350714027881622,9.77133560180664,0.0002551533980295062,0.013002909719944,-0.752774178981781,-0.658143937587738
1789658226147339658,1789658226151192723,0.01383460033684969,-0.03086180053651333,0.09258539974689484,0.16400282084941864,-0.20350714027881622,9.77133560180664,0.0002551533980295062,0.013002909719944,-0.752774178981781,-0.658143937587738
1789658226152441963,1789658226154756880,0.01383460033684969,-0.03086180053651333,0.09258539974689484,0.16400282084941864,-0.20350714027881622,9.77133560180664,0.0002551533980295062,0.013002909719944,-0.752774178981781,-0.658143937587738
1789658226155097878,1789658226158010907,0.01383460033684969,-0.03086180053651333,0.09258539974689484,0.16400282084941864,-0.20350714027881622,9.77133560180664,0.0002551533980295062,0.013002909719944,-0.752774178981781,-0.658143937587738
1789658226158624149,1789658226168527851,0.011706200428307056,-0.03086180053651333,0.09364960342645645,0.23523031175136566,-0.1999158412218094,9.835978507995605,0.0007293163798749447,0.013171604834496975,-0.7534292340278625,-0.6573901176452637
1789658226168958844,1789658226171069014,0.011706200428307056,-0.03086180053651333,0.09364960342645645,0.23523031175136566,-0.1999158412218094,9.835978507995605,0.0007293163798749447,0.013171604834496975,-0.7534292340278625,-0.6573901176452637
1789658226173124724,1789658226175459455,0.011706200428307056,-0.03086180053651333,0.09364960342645645,0.23523031175136566,-0.1999158412218094,9.835978507995605,0.0007293163798749447,0.013171604834496975,-0.7534292340278625,-0.6573901176452637
1789658226177726597,1789658226189532815,0.012770400382578373,-0.026605000719428062,0.09364960342645645,0.10773907601833344,-0.20470423996448517,9.925761222839355,0.0020658806897699833,0.012794600799679756,-0.7540959119796753,-0.656629741191864
1789658226189656252,1789658226192114457,0.012770400382578373,-0.026605000719428062,0.09364960342645645,0.10773907601833344,-0.20470423996448517,9.925761222839355,0.0020658806897699833,0.012794600799679756,-0.7540959119796753,-0.656629741191864
1789658226192973294,1789658226196129253,0.012770400382578373,-0.026605000719428062,0.09364960342645645,0.10773907601833344,-0.20470423996448517,9.925761222839355,0.0020658806897699833,0.012794600799679756,-0.7540959119796753,-0.656629741191864
1789658226197594147,1789658226210318588,0.012770400382578373,-0.02766920067369938,0.09364960342645645,0.19273322820663452,-0.1951274424791336,9.807847023010254,0.0003284124832134694,0.014020375907421112,-0.7547144293785095,-0.6558970808982849
1789658226210805318,1789658226213195768,0.012770400382578373,-0.02766920067369938,0.09364960342645645,0.19273322820663452,-0.1951274424791336,9.807847023010254,0.0003284124832134694,0.014020375907421112,-0.7547144293785095,-0.6558970808982849
1789658226214470284,1789658226218625165,0.012770400382578373,-0.02766920067369938,0.09364960342645645,0.19273322820663452,-0.1951274424791336,9.807847023010254,0.0003284124832134694,0.014020375907421112,-0.7547144293785095,-0.6558970808982849
1789658226219093581,1789658226231330107,0.012770400382578373,-0.03086180053651333,0.09152120351791382,0.16639702022075653,-0.2148796021938324,9.908403396606445,0.0006724640261381865,0.013628138229250908,-0.7553551197052002,-0.6551671028137207
1789658226231880167,1789658226236015345,0.012770400382578373,-0.03086180053651333,0.09152120351791382,0.16639702022075653,-0.2148796021938324,9.908403396606445,0.0006724640261381865,0.013628138229250908,-0.7553551197052002,-0.6551671028137207
1789658226237048894,1789658226240337938,0.012770400382578373,-0.03086180053651333,0.09152120351791382,0.16639702022075653,-0.2148796021938324,9.908403396606445,0.0006724640261381865,0.013628138229250908,-0.7553551197052002,-0.6551671028137207
1789658226241661544,1789658226252705697,0.011706200428307056,-0.031925998628139496,0.09364960342645645,0.1388636976480484,-0.20111294090747833,9.816824913024902,-0.00031140987994149327,0.01403866522014141,-0.7559800744056702,-0.6544373035430908
1789658226252987791,1789658226258165703,0.011706200428307056,-0.031925998628139496,0.09364960342645645,0.1388636976480484,-0.20111294090747833,9.816824913024902,-0.00031140987994149327,0.01403866522014141,-0.7559800744056702,-0.6544373035430908
1789658226258378746,1789658226261178541,0.011706200428307056,-0.031925998628139496,0.09364960342645645,0.1388636976480484,-0.20111294090747833,9.816824913024902,-0.00031140987994149327,0.01403866522014141,-0.7559800744056702,-0.6544373035430908
1789658226262672174,1789658226274147338,0.012770400382578373,-0.028733400627970695,0.09152120351791382,0.2621650695800781,-0.2041056901216507,9.830592155456543,-0.0003586301754694432,0.013447703793644905,-0.7566236853599548,-0.6537055373191833
1789658226273274261,1789658226275452241,0.012770400382578373,-0.028733400627970695,0.09152120351791382,0.2621650695800781,-0.2041056901216507,9.830592155456543,-0.0003586301754694432,0.013447703793644905,-0.7566236853599548,-0.6537055373191833
1789658226277746160,1789658226280361558,0.012770400382578373,-0.028733400627970695,0.09152120351791382,0.2621650695800781,-0.2041056901216507,9.830592155456543,-0.0003586301754694432,0.013447703793644905,-0.7566236853599548,-0.6537055373191833
1789658226282717714,1789658226294103865,0.012770400382578373,-0.03086180053651333,0.09152120351791382,0.10235211998224258,-0.20350714027881622,9.812036514282227,0.0010315467370674014,0.012332996353507042,-0.757272481918335,-0.6529752612113953
1789658226294188267,1789658226296784611,0.012770400382578373,-0.03086180053651333,0.09152120351791382,0.10235211998224258,-0.20350714027881622,9.812036514282227,0.0010315467370674014,0.012332996353507042,-0.757272481918335,-0.6529752612113953
1789658226297836048,1789658226301006636,0.012770400382578373,-0.03086180053651333,0.09152120351791382,0.10235211998224258,-0.20350714027881622,9.812036514282227,0.0010315467370674014,0.012332996353507042,-0.757272481918335,-0.6529752612113953
1789658226302750402,1789658226316042624,0.014898800291121006,-0.031925998628139496,0.09258539974689484,0.1759738177061081,-0.18315643072128296,9.876680374145508,0.00052035809494555,0.013467160984873772,-0.7578892707824707,-0.6522374153137207
1789658226315414458,1789658226319208861,0.014898800291121006,-0.031925998628139496,0.09258539974689484,0.1759738177061081,-0.18315643072128296,9.876680374145508,0.00052035809494555,0.013467160984873772,-0.7578892707824707,-0.6522374153137207
1789658226320740121,1789658226325043900,0.014898800291121006,-0.031925998628139496,0.09258539974689484,0.1759738177061081,-0.18315643072128296,9.876680374145508,0.00052035809494555,0.013467160984873772,-0.7578892707824707,-0.6522374153137207
1789658226325705971,1789658226335046893,0.011706200428307056,-0.031925998628139496,0.0904569998383522,0.16879121959209442,-0.18734627962112427,9.798869132995605,0.0009460275177843869,0.013441147282719612,-0.7585213780403137,-0.6515023708343506
1789658226337234262,1789658226340982112,0.011706200428307056,-0.031925998628139496,0.0904569998383522,0.16879121959209442,-0.18734627962112427,9.798869132995605,0.0009460275177843869,0.013441147282719612,-0.7585213780403137,-0.6515023708343506
1789658226342495262,1789658226345522025,0.011706200428307056,-0.031925998628139496,0.0904569998383522,0.16879121959209442,-0.18734627962112427,9.798869132995605,0.0009460275177843869,0.013441147282719612,-0.7585213780403137,-0.6515023708343506
1789658226348382594,1789658226358252040,0.011706200428307056,-0.029797600582242012,0.08939280360937119,0.12988543510437012,-0.19153612852096558,9.852738380432129,0.000151996617205441,0.014100728556513786,-0.7591228485107422,-0.6507880091667175
1789658226357570118,1789658226361725850,0.011706200428307056,-0.029797600582242012,0.08939280360937119,0.12988543510437012,-0.19153612852096558,9.852738380432129,0.000151996617205441,0.014100728556513786,-0.7591228485107422,-0.6507880091667175
1789658226362814637,1789658226366103792,0.011706200428307056,-0.029797600582242012,0.08939280360937119,0.12988543510437012,-0.19153612852096558,9.852738380432129,0.000151996617205441,0.014100728556513786,-0.7591228485107422,-0.6507880091667175
1789658226367700640,1789658226378120720,0.012770400382578373,-0.029797600582242012,0.0904569998383522,0.2214636504650116,-0.24839842319488525,9.818022727966309,-0.00085804722039029,0.0158698670566082,-0.7597121596336365,-0.6500586867332458
1789658226381599808,1789658226384610812,0.012770400382578373,-0.029797600582242012,0.0904569998383522,0.2214636504650116,-0.24839842319488525,9.818022727966309,-0.00085804722039029,0.0158698670566082,-0.7597121596336365,-0.6500586867332458
1789658226385090413,1789658226398046730,0.012770400382578373,-0.029797600582242012,0.0904569998383522,0.1430535465478897,-0.23403321206569672,9.876081466674805,0.00018222293874714524,0.014512881636619568,-0.7603568434715271,-0.6493366956710815
1789658226398815924,1789658226402947769,0.012770400382578373,-0.029797600582242012,0.0904569998383522,0.1430535465478897,-0.23403321206569672,9.876081466674805,0.00018222293874714524,0.014512881636619568,-0.7603568434715271,-0.6493366956710815
1789658226403794070,1789658226407297805,0.012770400382578373,-0.029797600582242012,0.0904569998383522,0.1430535465478897,-0.23403321206569672,9.876081466674805,0.00018222293874714524,0.014512881636619568,-0.7603568434715271,-0.6493366956710815
1789658226409000536,1789658226419194111,0.011706200428307056,-0.029797600582242012,0.09258539974689484,0.1777694672346115,-0.19393032789230347,9.999981880187988,-0.0011622980237007141,0.014283237978816032,-0.7609792351722717,-0.648611307144165
1789658226419939548,1789658226423752486,0.011706200428307056,-0.029797600582242012,0.09258539974689484,0.1777694672346115,-0.19393032789230347,9.999981880187988,-0.0011622980237007141,0.014283237978816032,-0.7609792351722717,-0.648611307144165
1789658226424498460,1789658226428037544,0.011706200428307056,-0.029797600582242012,0.09258539974689484,0.1777694672346115,-0.19393032789230347,9.999981880187988,-0.0011622980237007141,0.014283237978816032,-0.7609792351722717,-0.648611307144165
1789658226429013967,1789658226440459596,0.010641999542713165,-0.029797600582242012,0.09258539974689484,0.2017114907503128,-0.23403321206569672,9.834781646728516,-0.0005405108095146716,0.01390912476927042,-0.7616247534751892,-0.6478623151779175
1789658226441051283,1789658226444354529,0.010641999542713165,-0.029797600582242012,0.09258539974689484,0.2017114907503128,-0.23403321206569672,9.834781646728516,-0.0005405108095146716,0.01390912476927042,-0.7616247534751892,-0.6478623151779175
1789658226445205034,1789658226449153316,0.010641999542713165,-0.029797600582242012,0.09258539974689484,0.2017114907503128,-0.23403321206569672,9.834781646728516,-0.0005405108095146716,0.01390912476927042,-0.7616247534751892,-0.6478623151779175
1789658226449857366,1789658226461535037,0.011706200428307056,-0.03086180053651333,0.09258539974689484,0.14245499670505524,-0.18794482946395874,9.91977596282959,-0.00013230113836470991,0.01464998908340931,-0.7622537016868591,-0.6471059918403625
1789658226461820075,1789658226466778056,0.011706200428307056,-0.03086180053651333,0.09258539974689484,0.14245499670505524,-0.18794482946395874,9.91977596282959,-0.00013230113836470991,0.01464998908340931,-0.7622537016868591,-0.6471059918403625
1789658226467108036,1789658226470522813,0.011706200428307056,-0.03086180053651333,0.09258539974689484,0.14245499670505524,-0.18794482946395874,9.91977596282959,-0.00013230113836470991,0.01464998908340931,-0.7622537016868591,-0.6471059918403625
1789658226471057633,1789658226481218135,0.01383460033684969,-0.03086180053651333,0.09152120351791382,0.17896656692028046,-0.21128830313682556,10.038887977600098,-0.0012419738341122866,0.014776499010622501,-0.7628642916679382,-0.6463818550109863
1789658226484286100,1789658226486167302,0.01383460033684969,-0.03086180053651333,0.09152120351791382,0.17896656692028046,-0.21128830313682556,10.038887977600098,-0.0012419738341122866,0.014776499010622501,-0.7628642916679382,-0.6463818550109863
1789658226487583217,1789658226491138615,0.01383460033684969,-0.03086180053651333,0.09152120351791382,0.17896656692028046,-0.21128830313682556,10.038887977600098,-0.0012419738341122866,0.014776499010622501,-0.7628642916679382,-0.6463818550109863
1789658226493075851,1789658226502715625,0.011706200428307056,-0.03086180053651333,0.09258539974689484,0.1759738177061081,-0.243011474609375,9.86770248413086,-0.00024963822215795517,0.01415297668427229,-0.7635130286216736,-0.6456305384635925
1789658226502190712,1789658226505018746,0.011706200428307056,-0.03086180053651333,0.09258539974689484,0.1759738177061081,-0.243011474609375,9.86770248413086,-0.00024963822215795517,0.01415297668427229,-0.7635130286216736,-0.6456305384635925
1789658226506103755,1789658226509685967,0.011706200428307056,-0.03086180053651333,0.09258539974689484,0.1759738177061081,-0.243011474609375,9.86770248413086,-0.00024963822215795517,0.01415297668427229,-0.7635130286216736,-0.6456305384635925
1789658226510616355,1789658226523408608,0.01383460033684969,-0.029797600582242012,0.09258539974689484,0.104147769510746,-0.20889408886432648,9.874884605407715,-0.0012698740465566516,0.01443460676819086,-0.7641307711601257,-0.6448920369148254
1789658226523860469,1789658226526943970,0.01383460033684969,-0.029797600582242012,0.09258539974689484,0.104147769510746,-0.20889408886432648,9.874884605407715,-0.0012698740465566516,0.01443460676819086,-0.7641307711601257,-0.6448920369148254
1789658226528087994,1789658226530602640,0.01383460033684969,-0.029797600582242012,0.09258539974689484,0.104147769510746,-0.20889408886432648,9.874884605407715,-0.0012698740465566516,0.01443460676819086,-0.7641307711601257,-0.6448920369148254
1789658226532681404,1789658226555254551,0.012770400382578373,-0.029797600582242012,0.09258539974689484,0.23283611238002777,-0.22086510062217712,9.877877235412598,-0.0007476414903067052,0.014459222555160522,-0.7647611498832703,-0.644144594669342
1789658226545668181,1789658226556407149,0.012770400382578373,-0.029797600582242012,0.09258539974689484,0.23283611238002777,-0.22086510062217712,9.877877235412598,-0.0007476414903067052,0.014459222555160522,-0.7647611498832703,-0.644144594669342
1789658226550055770,1789658226557310836,0.012770400382578373,-0.029797600582242012,0.09258539974689484,0.23283611238002777,-0.22086510062217712,9.877877235412598,-0.0007476414903067052,0.014459222555160522,-0.7647611498832703,-0.644144594669342
1789658226554070456,1789658226565197919,0.004256799817085266,-0.05214580148458481,0.07023719698190689,1.975814938545227,-0.5931634902954102,9.424775123596191,-0.002494312822818756,0.016333147883415222,-0.7652867436408997,-0.6434707641601562
1789658226565757015,1789658226567115841,0.004256799817085266,-0.05214580148458481,0.07023719698190689,1.975814938545227,-0.5931634902954102,9.424775123596191,-0.002494312822818756,0.016333147883415222,-0.7652867436408997,-0.6434707641601562
1789658226567786245,1789658226570458511,0.004256799817085266,-0.05214580148458481,0.07023719698190689,1.975814938545227,-0.5931634902954102,9.424775123596191,-0.002494312822818756,0.016333147883415222,-0.7652867436408997,-0.6434707641601562
1789658226572949825,1789658226586955837,-0.015962999314069748,-0.038311198353767395,-0.010641999542713165,2.147000312805176,-0.31184476613998413,9.768940925598145,-0.004415643867105246,0.018110889941453934,-0.7653569579124451,-0.6433293223381042
1789658226586380131,1789658226589842775,-0.015962999314069748,-0.038311198353767395,-0.010641999542713165,2.147000312805176,-0.31184476613998413,9.768940925598145,-0.004415643867105246,0.018110889941453934,-0.7653569579124451,-0.6433293223381042
1789658226589765836,1789658226593633641,-0.015962999314069748,-0.038311198353767395,-0.010641999542713165,2.147000312805176,-0.31184476613998413,9.768940925598145,-0.004415643867105246,0.018110889941453934,-0.7653569579124451,-0.6433293223381042
1789658226593803705,1789658226607556807,-0.01809139922261238,0.007449400145560503,-0.02766920067369938,1.9405004978179932,0.043095629662275314,10.146028518676758,-0.006142678204923868,0.01939551718533039,-0.7651016712188721,-0.6435813903808594
1789658226608053906,1789658226611300582,-0.01809139922261238,0.007449400145560503,-0.02766920067369938,1.9405004978179932,0.043095629662275314,10.146028518676758,-0.006142678204923868,0.01939551718533039,-0.7651016712188721,-0.6435813903808594
1789658226613602074,1789658226617162861,-0.01809139922261238,0.007449400145560503,-0.02766920067369938,1.9405004978179932,0.043095629662275314,10.146028518676758,-0.006142678204923868,0.01939551718533039,-0.7651016712188721,-0.6435813903808594
1789658226617934259,1789658226628347746,0.05853100121021271,-0.017027199268341064,-0.010641999542713165,2.0219032764434814,-0.8409633040428162,9.74021053314209,-0.007580025587230921,0.020803336054086685,-0.7649921774864197,-0.6436521410942078
1789658226628890066,1789658226632297658,0.05853100121021271,-0.017027199268341064,-0.010641999542713165,2.0219032764434814,-0.8409633040428162,9.74021053314209,-0.007580025587230921,0.020803336054086685,-0.7649921774864197,-0.6436521410942078
1789658226632921472,1789658226635002514,0.05853100121021271,-0.017027199268341064,-0.010641999542713165,2.0219032764434814,-0.8409633040428162,9.74021053314209,-0.007580025587230921,0.020803336054086685,-0.7649921774864197,-0.6436521410942078
1789658226637684076,1789658226648279589,0.015962999314069748,-0.05746680125594139,-0.09897059947252274,1.0330979824066162,0.9971849918365479,10.418368339538574,-0.010281977243721485,0.020607735961675644,-0.7644765377044678,-0.644233226776123
1789658226648358510,1789658226652007680,0.015962999314069748,-0.05746680125594139,-0.09897059947252274,1.0330979824066162,0.9971849918365479,10.418368339538574,-0.010281977243721485,0.020607735961675644,-0.7644765377044678,-0.644233226776123
1789658226653292344,1789658226656409843,0.015962999314069748,-0.05746680125594139,-0.09897059947252274,1.0330979824066162,0.9971849918365479,10.418368339538574,-0.010281977243721485,0.020607735961675644,-0.7644765377044678,-0.644233226776123
1789658226657708635,1789658226669245111,-0.035118598490953445,-0.03724699839949608,-0.007449400145560503,1.1941081285476685,-0.7769184112548828,9.05487060546875,-0.01183776743710041,0.02251276560127735,-0.7640671730041504,-0.6446284651756287
1789658226669191651,1789658226672062590,-0.035118598490953445,-0.03724699839949608,-0.007449400145560503,1.1941081285476685,-0.7769184112548828,9.05487060546875,-0.01183776743710041,0.02251276560127735,-0.7640671730041504,-0.6446284651756287
1789658226674152983,1789658226676158030,-0.035118598490953445,-0.03724699839949608,-0.007449400145560503,1.1941081285476685,-0.7769184112548828,9.05487060546875,-0.01183776743710041,0.02251276560127735,-0.7640671730041504,-0.6446284651756287
1789658226677706715,1789658226690034606,0.023412400856614113,0.011706200428307056,0.06810879707336426,0.11013327538967133,-1.0181342363357544,11.283872604370117,-0.010918778367340565,0.02412094548344612,-0.7644705772399902,-0.6441078782081604
1789658226690246945,1789658226693872413,0.023412400856614113,0.011706200428307056,0.06810879707336426,0.11013327538967133,-1.0181342363357544,11.283872604370117,-0.010918778367340565,0.02412094548344612,-0.7644705772399902,-0.6441078782081604
1789658226694524707,1789658226697565284,0.023412400856614113,0.011706200428307056,0.06810879707336426,0.11013327538967133,-1.0181342363357544,11.283872604370117,-0.010918778367340565,0.02412094548344612,-0.7644705772399902,-0.6441078782081604
1789658226697665093,1789658226699959178,0.023412400856614113,0.011706200428307056,0.06810879707336426,0.11013327538967133,-1.0181342363357544,11.283872604370117,-0.010918778367340565,0.02412094548344612,-0.7644705772399902,-0.6441078782081604
1789658226702674367,1789658226711443082,0.031925998628139496,-0.04043959826231003,0.09364960342645645,-0.1304839849472046,0.7559691667556763,10.686518669128418,-0.010901122353971004,0.021936818957328796,-0.765082597732544,-0.6434593200683594
1789658226711359254,1789658226714480863,0.031925998628139496,-0.04043959826231003,0.09364960342645645,-0.1304839849472046,0.7559691667556763,10.686518669128418,-0.010901122353971004,0.021936818957328796,-0.765082597732544,-0.6434593200683594
1789658226715236559,1789658226718225861,0.031925998628139496,-0.04043959826231003,0.09364960342645645,-0.1304839849472046,0.7559691667556763,10.686518669128418,-0.010901122353971004,0.021936818957328796,-0.765082597732544,-0.6434593200683594
1789658226719013629,1789658226732404938,-0.03086180053651333,-0.05108160153031349,0.09471379965543747,0.7032967209815979,-0.07781155407428741,7.908646583557129,-0.012983215041458607,0.02191297523677349,-0.7656922340393066,-0.6426959037780762
1789658226733004957,1789658226734999745,-0.03086180053651333,-0.05108160153031349,0.09471379965543747,0.7032967209815979,-0.07781155407428741,7.908646583557129,-0.012983215041458607,0.02191297523677349,-0.7656922340393066,-0.6426959037780762
1789658226737672696,1789658226741276350,-0.03086180053651333,-0.05108160153031349,0.09471379965543747,0.7032967209815979,-0.07781155407428741,7.908646583557129,-0.012983215041458607,0.02191297523677349,-0.7656922340393066,-0.6426959037780762
1789658226742672896,1789658226753247207,0.020219799131155014,0.026605000719428062,0.08300759643316269,0.1256955862045288,-1.0935516357421875,11.566388130187988,-0.011257655918598175,0.023215167224407196,-0.7663037180900574,-0.6419535875320435
1789658226753276409,1789658226755027619,0.020219799131155014,0.026605000719428062,0.08300759643316269,0.1256955862045288,-1.0935516357421875,11.566388130187988,-0.011257655918598175,0.023215167224407196,-0.7663037180900574,-0.6419535875320435
1789658226757707236,1789658226760966263,0.020219799131155014,0.026605000719428062,0.08300759643316269,0.1256955862045288,-1.0935516357421875,11.566388130187988,-0.011257655918598175,0.023215167224407196,-0.7663037180900574,-0.6419535875320435
1789658226762652107,1789658226774290706,0.04469640180468559,-0.031925998628139496,0.0968421995639801,-0.15562310814857483,0.7643488645553589,10.83555793762207,-0.010926513001322746,0.021031653508543968,-0.7669505476951599,-0.6412616968154907
1789658226774370905,1789658226776063396,0.04469640180468559,-0.031925998628139496,0.0968421995639801,-0.15562310814857483,0.7643488645553589,10.83555793762207,-0.010926513001322746,0.021031653508543968,-0.7669505476951599,-0.6412616968154907
1789658226779226058,1789658226781103390,0.04469640180468559,-0.031925998628139496,0.0968421995639801,-0.15562310814857483,0.7643488645553589,10.83555793762207,-0.010926513001322746,0.021031653508543968,-0.7669505476951599,-0.6412616968154907
1789658226782712072,1789658226795024167,-0.022348200902342796,-0.056402601301670074,0.10216320306062698,0.8355763554573059,0.08200141042470932,8.382699012756348,-0.012935839593410492,0.020596016198396683,-0.7676157355308533,-0.6404419541358948
1789658226795212915,1789658226797148725,-0.022348200902342796,-0.056402601301670074,0.10216320306062698,0.8355763554573059,0.08200141042470932,8.382699012756348,-0.012935839593410492,0.020596016198396683,-0.7676157355308533,-0.6404419541358948
1789658226797799686,1789658226798969727,-0.022348200902342796,-0.056402601301670074,0.10216320306062698,0.8355763554573059,0.08200141042470932,8.382699012756348,-0.012935839593410492,0.020596016198396683,-0.7676157355308533,-0.6404419541358948
1789658226802708559,1789658226816405386,0.004256799817085266,0.019155599176883698,0.09152120351791382,0.3705027103424072,-1.2054805755615234,11.114482879638672,-0.011801538057625294,0.022505462169647217,-0.7682419419288635,-0.6396483182907104
1789658226816521824,1789658226818908292,0.004256799817085266,0.019155599176883698,0.09152120351791382,0.3705027103424072,-1.2054805755615234,11.114482879638672,-0.011801538057625294,0.022505462169647217,-0.7682419419288635,-0.6396483182907104
1789658226819122538,1789658226825084774,0.004256799817085266,0.019155599176883698,0.09152120351791382,0.3705027103424072,-1.2054805755615234,11.114482879638672,-0.011801538057625294,0.022505462169647217,-0.7682419419288635,-0.6396483182907104
1789658226825023925,1789658226837486679,0.04576060175895691,-0.025540800765156746,0.09897059947252274,0.005985504016280174,0.4758475720882416,10.730812072753906,-0.011016828007996082,0.020641079172492027,-0.7689138650894165,-0.6389173269271851
1789658226838000370,1789658226842302631,0.04576060175895691,-0.025540800765156746,0.09897059947252274,0.005985504016280174,0.4758475720882416,10.730812072753906,-0.011016828007996082,0.020641079172492027,-0.7689138650894165,-0.6389173269271851
1789658226842900391,1789658226847097881,0.04576060175895691,-0.025540800765156746,0.09897059947252274,0.005985504016280174,0.4758475720882416,10.730812072753906,-0.011016828007996082,0.020641079172492027,-0.7689138650894165,-0.6389173269271851
1789658226847907036,1789658226858315468,-0.014898800291121006,-0.05427420139312744,0.11386939883232117,0.4944026470184326,0.38307225704193115,8.532336235046387,-0.012159083969891071,0.01922224462032318,-0.7696278095245361,-0.6380807161331177
1789658226857637545,1789658226859986608,-0.014898800291121006,-0.05427420139312744,0.11386939883232117,0.4944026470184326,0.38307225704193115,8.532336235046387,-0.012159083969891071,0.01922224462032318,-0.7696278095245361,-0.6380807161331177
1789658226862648560,1789658226864210966,-0.014898800291121006,-0.05427420139312744,0.11386939883232117,0.4944026470184326,0.38307225704193115,8.532336235046387,-0.012159083969891071,0.01922224462032318,-0.7696278095245361,-0.6380807161331177
1789658226867639354,1789658226878939880,-0.008513599634170532,0.02128399908542633,0.10535579919815063,0.5817909836769104,-0.9702502489089966,10.943297386169434,-0.011728006415069103,0.021409112960100174,-0.7703322172164917,-0.6371687054634094
1789658226880654703,1789658226883670875,-0.008513599634170532,0.02128399908542633,0.10535579919815063,0.5817909836769104,-0.9702502489089966,10.943297386169434,-0.011728006415069103,0.021409112960100174,-0.7703322172164917,-0.6371687054634094
1789658226884507213,1789658226889024332,-0.008513599634170532,0.02128399908542633,0.10535579919815063,0.5817909836769104,-0.9702502489089966,10.943297386169434,-0.011728006415069103,0.021409112960100174,-0.7703322172164917,-0.6371687054634094
1789658226889183618,1789658226899001604,0.043632201850414276,-0.019155599176883698,0.103227399289608,-0.08319851011037827,0.2914940416812897,10.787673950195312,-0.010605857707560062,0.01969756744801998,-0.7710452079772949,-0.6363804936408997
1789658226899874274,1789658226901937058,0.043632201850414276,-0.019155599176883698,0.103227399289608,-0.08319851011037827,0.2914940416812897,10.787673950195312,-0.010605857707560062,0.01969756744801998,-0.7710452079772949,-0.6363804936408997
1789658226902710752,1789658226906028091,0.043632201850414276,-0.019155599176883698,0.103227399289608,-0.08319851011037827,0.2914940416812897,10.787673950195312,-0.010605857707560062,0.01969756744801998,-0.7710452079772949,-0.6363804936408997
1789658226907953364,1789658226921402947,-0.004256799817085266,-0.07342980057001114,0.11067680269479752,0.5925649404525757,0.36750996112823486,8.596979141235352,-0.012720970436930656,0.018606266006827354,-0.771750271320343,-0.63551926612854
1789658226921312656,1789658226925170555,-0.004256799817085266,-0.07342980057001114,0.11067680269479752,0.5925649404525757,0.36750996112823486,8.596979141235352,-0.012720970436930656,0.018606266006827354,-0.771750271320343,-0.63551926612854
1789658226926870101,1789658226929051952,-0.004256799817085266,-0.07342980057001114,0.11067680269479752,0.5925649404525757,0.36750996112823486,8.596979141235352,-0.012720970436930656,0.018606266006827354,-0.771750271320343,-0.63551926612854
1789658226929868292,1789658226941441321,-0.01383460033684969,0.0,0.10854840278625488,0.39624038338661194,-0.9205705523490906,9.771934509277344,-0.012654961086809635,0.020795075222849846,-0.7724512219429016,-0.6346005201339722
1789658226942494572,1789658226946699895,-0.01383460033684969,0.0,0.10854840278625488,0.39624038338661194,-0.9205705523490906,9.771934509277344,-0.012654961086809635,0.020795075222849846,-0.7724512219429016,-0.6346005201339722
1789658226948301854,1789658226950413431,-0.01383460033684969,0.0,0.10854840278625488,0.39624038338661194,-0.9205705523490906,9.771934509277344,-0.012654961086809635,0.020795075222849846,-0.7724512219429016,-0.6346005201339722
1789658226952750662,1789658226962144117,0.05214580148458481,-0.023412400856614113,0.09790640324354172,-0.4884171485900879,0.15741875767707825,10.384849548339844,-0.01113639771938324,0.019609922543168068,-0.7731817364692688,-0.6337766051292419
1789658226962421545,1789658226964503735,0.05214580148458481,-0.023412400856614113,0.09790640324354172,-0.4884171485900879,0.15741875767707825,10.384849548339844,-0.01113639771938324,0.019609922543168068,-0.7731817364692688,-0.6337766051292419
1789658226964931580,1789658226966976680,0.05214580148458481,-0.023412400856614113,0.09790640324354172,-0.4884171485900879,0.15741875767707825,10.384849548339844,-0.01113639771938324,0.019609922543168068,-0.7731817364692688,-0.6337766051292419
1789658226967691100,1789658226971176928,0.05214580148458481,-0.023412400856614113,0.09790640324354172,-0.4884171485900879,0.15741875767707825,10.384849548339844,-0.01113639771938324,0.019609922543168068,-0.7731817364692688,-0.6337766051292419
1789658226983319904,1789658226985515810,0.005320999771356583,-0.0904569998383522,0.11280520260334015,0.5141547918319702,0.21607670187950134,8.488043785095215,-0.01234770379960537,0.018230663612484932,-0.7738922238349915,-0.6329275369644165
1789658226988043788,1789658226991190247,0.005320999771356583,-0.0904569998383522,0.11280520260334015,0.5141547918319702,0.21607670187950134,8.488043785095215,-0.01234770379960537,0.018230663612484932,-0.7738922238349915,-0.6329275369644165
1789658226992697509,1789658227005097840,-0.02447660081088543,0.004256799817085266,0.10642000287771225,0.7727285623550415,-0.5764040350914001,9.366116523742676,-0.013289852067828178,0.0204696673899889,-0.774596095085144,-0.6319782733917236
1789658227005367546,1789658227008306259,-0.02447660081088543,0.004256799817085266,0.10642000287771225,0.7727285623550415,-0.5764040350914001,9.366116523742676,-0.013289852067828178,0.0204696673899889,-0.774596095085144,-0.6319782733917236
1789658227009090176,1789658227011487495,-0.02447660081088543,0.004256799817085266,0.10642000287771225,0.7727285623550415,-0.5764040350914001,9.366116523742676,-0.013289852067828178,0.0204696673899889,-0.774596095085144,-0.6319782733917236
1789658227012896281,1789658227025112236,0.046824801713228226,0.014898800291121006,0.0904569998383522,-0.42616790533065796,-0.22924481332302094,11.94946002960205,-0.011289050802588463,0.01995101384818554,-0.7752864956855774,-0.6311867237091064
1789658227025287596,1789658227026963366,0.046824801713228226,0.014898800291121006,0.0904569998383522,-0.42616790533065796,-0.22924481332302094,11.94946002960205,-0.011289050802588463,0.01995101384818554,-0.7752864956855774,-0.6311867237091064
1789658227027737616,1789658227028997540,0.046824801713228226,0.014898800291121006,0.0904569998383522,-0.42616790533065796,-0.22924481332302094,11.94946002960205,-0.011289050802588463,0.01995101384818554,-0.7752864956855774,-0.6311867237091064
1789658227032642026,1789658227046472532,0.008513599634170532,-0.07449399679899216,0.11174099892377853,0.32501286268234253,-0.05746084079146385,9.232640266418457,-0.011515001766383648,0.017968986183404922,-0.7759981751441956,-0.6303671598434448
1789658227046705481,1789658227050898675,0.008513599634170532,-0.07449399679899216,0.11174099892377853,0.32501286268234253,-0.05746084079146385,9.232640266418457,-0.011515001766383648,0.017968986183404922,-0.7759981751441956,-0.6303671598434448
1789658227051073553,1789658227056610981,0.008513599634170532,-0.07449399679899216,0.11174099892377853,0.32501286268234253,-0.05746084079146385,9.232640266418457,-0.011515001766383648,0.017968986183404922,-0.7759981751441956,-0.6303671598434448
1789658227056749010,1789658227066912958,-0.017027199268341064,-0.010641999542713165,0.11174099892377853,0.8996212482452393,-0.33518823981285095,9.667786598205566,-0.01260411273688078,0.02022535353899002,-0.776728093624115,-0.6293783187866211
1789658227066820186,1789658227068987630,-0.017027199268341064,-0.010641999542713165,0.11174099892377853,0.8996212482452393,-0.33518823981285095,9.667786598205566,-0.01260411273688078,0.02022535353899002,-0.776728093624115,-0.6293783187866211
1789658227069746325,1789658227074207170,-0.017027199268341064,-0.010641999542713165,0.11174099892377853,0.8996212482452393,-0.33518823981285095,9.667786598205566,-0.01260411273688078,0.02022535353899002,-0.776728093624115,-0.6293783187866211
1789658227076291823,1789658227087236539,0.06172360107302666,0.007449400145560503,0.09258539974689484,-0.44592005014419556,-0.49559974670410156,11.515511512756348,-0.010686591267585754,0.019994065165519714,-0.7774326801300049,-0.6285505890846252
1789658227088261348,1789658227092221574,0.06172360107302666,0.007449400145560503,0.09258539974689484,-0.44592005014419556,-0.49559974670410156,11.515511512756348,-0.010686591267585754,0.019994065165519714,-0.7774326801300049,-0.6285505890846252
1789658227093107428,1789658227100258649,0.06172360107302666,0.007449400145560503,0.09258539974689484,-0.44592005014419556,-0.49559974670410156,11.515511512756348,-0.010686591267585754,0.019994065165519714,-0.7774326801300049,-0.6285505890846252
1789658227098043040,1789658227108144788,0.026605000719428062,-0.09152120351791382,0.10642000287771225,-0.14664484560489655,0.31124621629714966,8.828619003295898,-0.011241327039897442,0.01787590980529785,-0.7781129479408264,-0.6277625560760498
1789658227108866800,1789658227111039152,0.026605000719428062,-0.09152120351791382,0.10642000287771225,-0.14664484560489655,0.31124621629714966,8.828619003295898,-0.011241327039897442,0.01787590980529785,-0.7781129479408264,-0.6277625560760498
1789658227112789899,1789658227115102316,0.026605000719428062,-0.09152120351791382,0.10642000287771225,-0.14664484560489655,0.31124621629714966,8.828619003295898,-0.011241327039897442,0.01787590980529785,-0.7781129479408264,-0.6277625560760498
1789658227117681958,1789658227129180141,-0.014898800291121006,-0.03299019858241081,0.103227399289608,0.9516951441764832,-0.5327098965644836,9.446322441101074,-0.012956599704921246,0.01987176388502121,-0.7787765264511108,-0.6268460154533386
1789658227129316040,1789658227131032660,-0.014898800291121006,-0.03299019858241081,0.103227399289608,0.9516951441764832,-0.5327098965644836,9.446322441101074,-0.012956599704921246,0.01987176388502121,-0.7787765264511108,-0.6268460154533386
1789658227132503461,1789658227136021250,-0.014898800291121006,-0.03299019858241081,0.103227399289608,0.9516951441764832,-0.5327098965644836,9.446322441101074,-0.012956599704921246,0.01987176388502121,-0.7787765264511108,-0.6268460154533386
1789658227137659134,1789658227150973356,0.05427420139312744,0.02447660081088543,0.09258539974689484,-0.4255693554878235,-0.6440402269363403,11.165958404541016,-0.011180995963513851,0.02030511572957039,-0.7794365882873535,-0.6260452270507812
1789658227150394150,1789658227153739394,0.05427420139312744,0.02447660081088543,0.09258539974689484,-0.4255693554878235,-0.6440402269363403,11.165958404541016,-0.011180995963513851,0.02030511572957039,-0.7794365882873535,-0.6260452270507812
1789658227154017618,1789658227157464227,0.05427420139312744,0.02447660081088543,0.09258539974689484,-0.4255693554878235,-0.6440402269363403,11.165958404541016,-0.011180995963513851,0.02030511572957039,-0.7794365882873535,-0.6260452270507812
1789658227158166370,1789658227171414615,0.03937539830803871,-0.07449399679899216,0.10854840278625488,-0.6117185354232788,0.34177228808403015,8.778340339660645,-0.011105992831289768,0.018187766894698143,-0.7801459431648254,-0.6252276301383972
1789658227172056262,1789658227175226239,0.03937539830803871,-0.07449399679899216,0.10854840278625488,-0.6117185354232788,0.34177228808403015,8.778340339660645,-0.011105992831289768,0.018187766894698143,-0.7801459431648254,-0.6252276301383972
1789658227178215301,1789658227181095943,0.03937539830803871,-0.07449399679899216,0.10854840278625488,-0.6117185354232788,0.34177228808403015,8.778340339660645,-0.011105992831289768,0.018187766894698143,-0.7801459431648254,-0.6252276301383972
1789658227182544227,1789658227191996699,-0.010641999542713165,-0.035118598490953445,0.10003480315208435,0.9648632407188416,-0.181959331035614,8.638279914855957,-0.013420633040368557,0.018887637183070183,-0.7807885408401489,-0.6243588328361511
1789658227192234462,1789658227193951304,-0.010641999542713165,-0.035118598490953445,0.10003480315208435,0.9648632407188416,-0.181959331035614,8.638279914855957,-0.013420633040368557,0.018887637183070183,-0.7807885408401489,-0.6243588328361511
1789658227194636393,1789658227195972239,-0.010641999542713165,-0.035118598490953445,0.10003480315208435,0.9648632407188416,-0.181959331035614,8.638279914855957,-0.013420633040368557,0.018887637183070183,-0.7807885408401489,-0.6243588328361511
1789658227197616214,1789658227201125245,-0.010641999542713165,-0.035118598490953445,0.10003480315208435,0.9648632407188416,-0.181959331035614,8.638279914855957,-0.013420633040368557,0.018887637183070183,-0.7807885408401489,-0.6243588328361511
1789658227202641784,1789658227215792849,0.05853100121021271,0.031925998628139496,0.09258539974689484,-0.2992752194404602,-0.954089343547821,11.062408447265625,-0.01178662572056055,0.019654598087072372,-0.7814310789108276,-0.6235636472702026
1789658227213566871,1789658227217134547,0.05853100121021271,0.031925998628139496,0.09258539974689484,-0.2992752194404602,-0.954089343547821,11.062408447265625,-0.01178662572056055,0.019654598087072372,-0.7814310789108276,-0.6235636472702026
1789658227218296200,1789658227223492315,0.05853100121021271,0.031925998628139496,0.09258539974689484,-0.2992752194404602,-0.954089343547821,11.062408447265625,-0.01178662572056055,0.019654598087072372,-0.7814310789108276,-0.6235636472702026
1789658227223774316,1789658227234149862,0.03299019858241081,-0.06704460084438324,0.10003480315208435,-0.6440402269363403,0.4794388711452484,9.367314338684082,-0.011492290534079075,0.017530664801597595,-0.782099187374115,-0.6227943301200867
1789658227234855098,1789658227238080368,0.03299019858241081,-0.06704460084438324,0.10003480315208435,-0.6440402269363403,0.4794388711452484,9.367314338684082,-0.011492290534079075,0.017530664801597595,-0.782099187374115,-0.6227943301200867
1789658227238902967,1789658227240417802,0.03299019858241081,-0.06704460084438324,0.10003480315208435,-0.6440402269363403,0.4794388711452484,9.367314338684082,-0.011492290534079075,0.017530664801597595,-0.782099187374115,-0.6227943301200867
1789658227242654298,1789658227254276066,-0.01809139922261238,-0.04895320162177086,0.10109899938106537,0.9528922438621521,-0.32501286268234253,9.068038940429688,-0.013612352311611176,0.019325824454426765,-0.782712459564209,-0.6219276189804077
1789658227254358524,1789658227258164185,-0.01809139922261238,-0.04895320162177086,0.10109899938106537,0.9528922438621521,-0.32501286268234253,9.068038940429688,-0.013612352311611176,0.019325824454426765,-0.782712459564209,-0.6219276189804077
1789658227258127373,1789658227261015015,-0.01809139922261238,-0.04895320162177086,0.10109899938106537,0.9528922438621521,-0.32501286268234253,9.068038940429688,-0.013612352311611176,0.019325824454426765,-0.782712459564209,-0.6219276189804077
1789658227262618363,1789658227275244497,0.03405439853668213,0.03405439853668213,0.08832859992980957,0.06703764945268631,-0.8146271109580994,11.207258224487305,-0.01183721050620079,0.020401140674948692,-0.7833328247070312,-0.6211480498313904
1789658227275359416,1789658227278216227,0.03405439853668213,0.03405439853668213,0.08832859992980957,0.06703764945268631,-0.8146271109580994,11.207258224487305,-0.01183721050620079,0.020401140674948692,-0.7833328247070312,-0.6211480498313904
1789658227280289621,1789658227284535404,0.03405439853668213,0.03405439853668213,0.08832859992980957,0.06703764945268631,-0.8146271109580994,11.207258224487305,-0.01183721050620079,0.020401140674948692,-0.7833328247070312,-0.6211480498313904
1789658227284711005,1789658227296123600,0.04043959826231003,-0.06065940111875534,0.0968421995639801,-0.4902127981185913,0.5063736438751221,9.428365707397461,-0.01144493743777275,0.018285570666193962,-0.7839676141738892,-0.6204198002815247
1789658227296850631,1789658227300172154,0.04043959826231003,-0.06065940111875534,0.0968421995639801,-0.4902127981185913,0.5063736438751221,9.428365707397461,-0.01144493743777275,0.018285570666193962,-0.7839676141738892,-0.6204198002815247
1789658227300788395,1789658227302933545,0.04043959826231003,-0.06065940111875534,0.0968421995639801,-0.4902127981185913,0.5063736438751221,9.428365707397461,-0.01144493743777275,0.018285570666193962,-0.7839676141738892,-0.6204198002815247
1789658227303593820,1789658227306108670,0.04043959826231003,-0.06065940111875534,0.0968421995639801,-0.4902127981185913,0.5063736438751221,9.428365707397461,-0.01144493743777275,0.018285570666193962,-0.7839676141738892,-0.6204198002815247
1789658227308056090,1789658227317904927,-0.01383460033684969,-0.046824801713228226,0.08939280360937119,1.0690110921859741,0.04908113554120064,9.252392768859863,-0.01361472625285387,0.018126223236322403,-0.7845359444618225,-0.6196619272232056
1789658227317392569,1789658227320567916,-0.01383460033684969,-0.046824801713228226,0.08939280360937119,1.0690110921859741,0.04908113554120064,9.252392768859863,-0.01361472625285387,0.018126223236322403,-0.7845359444618225,-0.6196619272232056
1789658227321045313,1789658227324323284,-0.01383460033684969,-0.046824801713228226,0.08939280360937119,1.0690110921859741,0.04908113554120064,9.252392768859863,-0.01361472625285387,0.018126223236322403,-0.7845359444618225,-0.6196619272232056
1789658227325114514,1789658227338307225,0.02447660081088543,0.029797600582242012,0.08726440370082855,0.15143325924873352,-1.3724761009216309,10.928333282470703,-0.012024705298244953,0.019508639350533485,-0.7851189970970154,-0.6189138889312744
1789658227339090845,1789658227343554874,0.02447660081088543,0.029797600582242012,0.08726440370082855,0.15143325924873352,-1.3724761009216309,10.928333282470703,-0.012024705298244953,0.019508639350533485,-0.7851189970970154,-0.6189138889312744
1789658227344408490,1789658227347974647,0.02447660081088543,0.029797600582242012,0.08726440370082855,0.15143325924873352,-1.3724761009216309,10.928333282470703,-0.012024705298244953,0.019508639350533485,-0.7851189970970154,-0.6189138889312744
1789658227348267204,1789658227358982507,0.04256799817085266,-0.05427420139312744,0.08939280360937119,-0.7092822194099426,0.5488707423210144,10.031105995178223,-0.011383403092622757,0.0174791868776083,-0.7857217788696289,-0.6182212829589844
1789658227359699057,1789658227360963722,0.04256799817085266,-0.05427420139312744,0.08939280360937119,-0.7092822194099426,0.5488707423210144,10.031105995178223,-0.011383403092622757,0.0174791868776083,-0.7857217788696289,-0.6182212829589844
1789658227362607642,1789658227366957826,0.04256799817085266,-0.05427420139312744,0.08939280360937119,-0.7092822194099426,0.5488707423210144,10.031105995178223,-0.011383403092622757,0.0174791868776083,-0.7857217788696289,-0.6182212829589844
1789658227367976710,1789658227380934694,-0.008513599634170532,-0.06598039716482162,0.10748419910669327,0.6985083222389221,-0.10295066982507706,9.05606746673584,-0.012115679681301117,0.017089907079935074,-0.7863850593566895,-0.6173742413520813
1789658227381596080,1789658227384725949,-0.008513599634170532,-0.06598039716482162,0.10748419910669327,0.6985083222389221,-0.10295066982507706,9.05606746673584,-0.012115679681301117,0.017089907079935074,-0.7863850593566895,-0.6173742413520813
1789658227385153405,1789658227387169599,-0.008513599634170532,-0.06598039716482162,0.10748419910669327,0.6985083222389221,-0.10295066982507706,9.05606746673584,-0.012115679681301117,0.017089907079935074,-0.7863850593566895,-0.6173742413520813
1789658227388114820,1789658227401176335,0.009577799588441849,0.023412400856614113,0.0904569998383522,0.2992752194404602,-0.9522936940193176,10.014945983886719,-0.011749851517379284,0.018986545503139496,-0.7870026230812073,-0.6165384650230408
1789658227401979306,1789658227405028920,0.009577799588441849,0.023412400856614113,0.0904569998383522,0.2992752194404602,-0.9522936940193176,10.014945983886719,-0.011749851517379284,0.018986545503139496,-0.7870026230812073,-0.6165384650230408
1789658227405808280,1789658227408152807,0.009577799588441849,0.023412400856614113,0.0904569998383522,0.2992752194404602,-0.9522936940193176,10.014945983886719,-0.011749851517379284,0.018986545503139496,-0.7870026230812073,-0.6165384650230408
1789658227409048457,1789658227423189852,0.041503798216581345,-0.03937539830803871,0.08726440370082855,-0.45669397711753845,0.49140989780426025,10.47702693939209,-0.010836673900485039,0.01708335056900978,-0.787591278553009,-0.615858793258667
1789658227423996526,1789658227425970649,0.041503798216581345,-0.03937539830803871,0.08726440370082855,-0.45669397711753845,0.49140989780426025,10.47702693939209,-0.010836673900485039,0.01708335056900978,-0.787591278553009,-0.615858793258667
1789658227427631716,1789658227431621774,0.041503798216581345,-0.03937539830803871,0.08726440370082855,-0.45669397711753845,0.49140989780426025,10.47702693939209,-0.010836673900485039,0.01708335056900978,-0.787591278553009,-0.615858793258667
1789658227432631843,1789658227442697389,-0.014898800291121006,-0.07342980057001114,0.09471379965543747,0.4321534037590027,-0.05985504016280174,8.81784439086914,-0.011526668444275856,0.01648278348147869,-0.7881838083267212,-0.6151042580604553
1789658227442339225,1789658227446525401,-0.014898800291121006,-0.07342980057001114,0.09471379965543747,0.4321534037590027,-0.05985504016280174,8.81784439086914,-0.011526668444275856,0.01648278348147869,-0.7881838083267212,-0.6151042580604553
1789658227446833771,1789658227449851368,-0.014898800291121006,-0.07342980057001114,0.09471379965543747,0.4321534037590027,-0.05985504016280174,8.81784439086914,-0.011526668444275856,0.01648278348147869,-0.7881838083267212,-0.6151042580604553
1789658227450006063,1789658227452860040,-0.014898800291121006,-0.07342980057001114,0.09471379965543747,0.4321534037590027,-0.05985504016280174,8.81784439086914,-0.011526668444275856,0.01648278348147869,-0.7881838083267212,-0.6151042580604553
1789658227453035900,1789658227463150295,-0.008513599634170532,0.01383460033684969,0.08087919652462006,0.6554127335548401,-0.8242039084434509,9.734824180603027,-0.01136787235736847,0.01877068728208542,-0.7887165546417236,-0.6143581867218018
