t_ns,t_bag_ns,wx,wy,wz,ax,ay,az,qx,qy,qz,qw
1789658050230342960,1789658050240107732,0.012770400382578373,-0.03299019858241081,0.0904569998383522,-0.005985504016280174,-0.22924481332302094,9.935338020324707,0.009712538681924343,-0.0014370328281074762,0.20525136590003967,-0.9786556363105774
1789658050240376302,1789658050241888505,0.012770400382578373,-0.03299019858241081,0.0904569998383522,-0.005985504016280174,-0.22924481332302094,9.935338020324707,0.009712538681924343,-0.0014370328281074762,0.20525136590003967,-0.9786556363105774
1789658050245421517,1789658050249521979,0.012770400382578373,-0.03299019858241081,0.0904569998383522,-0.005985504016280174,-0.22924481332302094,9.935338020324707,0.009712538681924343,-0.0014370328281074762,0.20525136590003967,-0.9786556363105774
1789658050250719728,1789658050261340890,0.011706200428307056,-0.03299019858241081,0.09152120351791382,-0.04369417950510979,-0.17836801707744598,9.829395294189453,0.008498412556946278,-0.0009639057097956538,0.20431165397167206,-0.9788640737533569
1789658050261740763,1789658050266292317,0.011706200428307056,-0.03299019858241081,0.09152120351791382,-0.04369417950510979,-0.17836801707744598,9.829395294189453,0.008498412556946278,-0.0009639057097956538,0.20431165397167206,-0.9788640737533569
1789658050268971513,1789658050281878701,0.012770400382578373,-0.03299019858241081,0.09152120351791382,0.008978256024420261,-0.16519992053508759,9.932345390319824,0.009175221435725689,-0.0008758672047406435,0.20337332785129547,-0.9790534973144531
1789658050282942795,1789658050285794142,0.012770400382578373,-0.03299019858241081,0.09152120351791382,0.008978256024420261,-0.16519992053508759,9.932345390319824,0.009175221435725689,-0.0008758672047406435,0.20337332785129547,-0.9790534973144531
1789658050287867038,1789658050290859818,0.012770400382578373,-0.03299019858241081,0.09152120351791382,0.008978256024420261,-0.16519992053508759,9.932345390319824,0.009175221435725689,-0.0008758672047406435,0.20337332785129547,-0.9790534973144531
1789658050291713097,1789658050302017934,0.012770400382578373,-0.031925998628139496,0.09364960342645645,-0.02753331884741783,-0.20231004059314728,9.742605209350586,0.008231785148382187,-0.001468320027925074,0.20241013169288635,-0.9792608022689819
1789658050303679847,1789658050307030208,0.012770400382578373,-0.031925998628139496,0.09364960342645645,-0.02753331884741783,-0.20231004059314728,9.742605209350586,0.008231785148382187,-0.001468320027925074,0.20241013169288635,-0.9792608022689819
1789658050310080742,1789658050323055757,0.012770400382578373,-0.03299019858241081,0.09258539974689484,-0.009576806798577309,-0.15322890877723694,9.900023460388184,0.008889131247997284,-0.000972343550529331,0.20145082473754883,-0.979453444480896
1789658050323620820,1789658050324968445,0.012770400382578373,-0.03299019858241081,0.09258539974689484,-0.009576806798577309,-0.15322890877723694,9.900023460388184,0.008889131247997284,-0.000972343550529331,0.20145082473754883,-0.979453444480896
1789658050325871127,1789658050327730578,0.012770400382578373,-0.03299019858241081,0.09258539974689484,-0.009576806798577309,-0.15322890877723694,9.900023460388184,0.008889131247997284,-0.000972343550529331,0.20145082473754883,-0.979453444480896
1789658050330305579,1789658050332024376,0.012770400382578373,-0.03299019858241081,0.09258539974689484,-0.009576806798577309,-0.15322890877723694,9.900023460388184,0.008889131247997284,-0.000972343550529331,0.20145082473754883,-0.979453444480896
1789658050335310594,1789658050344720823,0.011706200428307056,-0.03405439853668213,0.09258539974689484,-0.0077811554074287415,-0.228047713637352,9.849146842956543,0.010059869848191738,-0.00019069739209953696,0.20050401985645294,-0.9796367883682251
1789658050344065694,1789658050347903253,0.011706200428307056,-0.03405439853668213,0.09258539974689484,-0.0077811554074287415,-0.228047713637352,9.849146842956543,0.010059869848191738,-0.00019069739209953696,0.20050401985645294,-0.9796367883682251
1789658050347624036,1789658050352645327,0.011706200428307056,-0.03405439853668213,0.09258539974689484,-0.0077811554074287415,-0.228047713637352,9.849146842956543,0.010059869848191738,-0.00019069739209953696,0.20050401985645294,-0.9796367883682251
1789658050352721488,1789658050365287501,0.012770400382578373,-0.03299019858241081,0.0904569998383522,-0.09038111567497253,-0.19213467836380005,9.822212219238281,0.008649332448840141,-0.00014597302651964128,0.19956287741661072,-0.979842483997345
1789658050365836547,1789658050380305860,0.012770400382578373,-0.03299019858241081,0.0904569998383522,-0.09038111567497253,-0.19213467836380005,9.822212219238281,0.008649332448840141,-0.00014597302651964128,0.19956287741661072,-0.979842483997345
1789658050370868077,1789658050380977783,0.012770400382578373,-0.03299019858241081,0.0904569998383522,-0.09038111567497253,-0.19213467836380005,9.822212219238281,0.008649332448840141,-0.00014597302651964128,0.19956287741661072,-0.979842483997345
1789658050375723457,1789658050386170412,0.012770400382578373,-0.035118598490953445,0.09152120351791382,-0.0005985504249110818,-0.19273322820663452,9.900023460388184,0.009645584039390087,0.00038235390093177557,0.19862665235996246,-0.9800233840942383
1789658050385986150,1789658050387719501,0.012770400382578373,-0.035118598490953445,0.09152120351791382,-0.0005985504249110818,-0.19273322820663452,9.900023460388184,0.009645584039390087,0.00038235390093177557,0.19862665235996246,-0.9800233840942383
1789658050390538036,1789658050392765067,0.012770400382578373,-0.035118598490953445,0.09152120351791382,-0.0005985504249110818,-0.19273322820663452,9.900023460388184,0.009645584039390087,0.00038235390093177557,0.19862665235996246,-0.9800233840942383
1789658050395281574,1789658050407086634,0.011706200428307056,-0.03405439853668213,0.09152120351791382,-0.03651157394051552,-0.22266075015068054,9.798270225524902,0.009672677144408226,-0.0012948350049555302,0.19765415787696838,-0.980218768119812
1789658050407218011,1789658050409779921,0.011706200428307056,-0.03405439853668213,0.09152120351791382,-0.03651157394051552,-0.22266075015068054,9.798270225524902,0.009672677144408226,-0.0012948350049555302,0.19765415787696838,-0.980218768119812
1789658050411028536,1789658050413972968,0.011706200428307056,-0.03405439853668213,0.09152120351791382,-0.03651157394051552,-0.22266075015068054,9.798270225524902,0.009672677144408226,-0.0012948350049555302,0.19765415787696838,-0.980218768119812
1789658050415782350,1789658050427861702,0.011706200428307056,-0.03405439853668213,0.09364960342645645,0.06823474913835526,-0.15741875767707825,9.838972091674805,0.009697621688246727,0.0008030312601476908,0.1967184990644455,-0.9804072976112366
1789658050428034335,1789658050430676201,0.011706200428307056,-0.03405439853668213,0.09364960342645645,0.06823474913835526,-0.15741875767707825,9.838972091674805,0.009697621688246727,0.0008030312601476908,0.1967184990644455,-0.9804072976112366
1789658050431653672,1789658050435344429,0.011706200428307056,-0.03405439853668213,0.09364960342645645,0.06823474913835526,-0.15741875767707825,9.838972091674805,0.009697621688246727,0.0008030312601476908,0.1967184990644455,-0.9804072976112366
1789658050436070126,1789658050448852455,0.01383460033684969,-0.031925998628139496,0.09258539974689484,0.052073884755373,-0.20470423996448517,9.985017776489258,0.009472817182540894,0.00026148383039981127,0.1957496851682663,-0.9806036949157715
1789658050449572837,1789658050452960935,0.01383460033684969,-0.031925998628139496,0.09258539974689484,0.052073884755373,-0.20470423996448517,9.985017776489258,0.009472817182540894,0.00026148383039981127,0.1957496851682663,-0.9806036949157715
1789658050453857006,1789658050457769985,0.01383460033684969,-0.031925998628139496,0.09258539974689484,0.052073884755373,-0.20470423996448517,9.985017776489258,0.009472817182540894,0.00026148383039981127,0.1957496851682663,-0.9806036949157715
1789658050458533420,1789658050469212762,0.012770400382578373,-0.029797600582242012,0.09258539974689484,0.028730420395731926,-0.19273322820663452,9.964667320251465,0.009720704518258572,-0.00038138689706102014,0.19480139017105103,-0.9807900786399841
1789658050470774924,1789658050474854537,0.012770400382578373,-0.029797600582242012,0.09258539974689484,0.028730420395731926,-0.19273322820663452,9.964667320251465,0.009720704518258572,-0.00038138689706102014,0.19480139017105103,-0.9807900786399841
1789658050475610361,1789658050479811463,0.012770400382578373,-0.029797600582242012,0.09258539974689484,0.028730420395731926,-0.19273322820663452,9.964667320251465,0.009720704518258572,-0.00038138689706102014,0.19480139017105103,-0.9807900786399841
1789658050480258628,1789658050489889486,0.01383460033684969,-0.03086180053651333,0.0904569998383522,0.014365210197865963,-0.17717091739177704,10.047266960144043,0.008822407573461533,0.00041237048571929336,0.19386735558509827,-0.9809836149215698
1789658050491297513,1789658050495012917,0.01383460033684969,-0.03086180053651333,0.0904569998383522,0.014365210197865963,-0.17717091739177704,10.047266960144043,0.008822407573461533,0.00041237048571929336,0.19386735558509827,-0.9809836149215698
1789658050495528872,1789658050498897472,0.01383460033684969,-0.03086180053651333,0.0904569998383522,0.014365210197865963,-0.17717091739177704,10.047266960144043,0.008822407573461533,0.00041237048571929336,0.19386735558509827,-0.9809836149215698
1789658050500442487,1789658050511992570,0.01383460033684969,-0.03299019858241081,0.09152120351791382,0.04010287672281265,-0.19033902883529663,9.951498985290527,0.009256645105779171,-0.0001808415399864316,0.19292697310447693,-0.9811649918556213
1789658050512585833,1789658050516381452,0.01383460033684969,-0.03299019858241081,0.09152120351791382,0.04010287672281265,-0.19033902883529663,9.951498985290527,0.009256645105779171,-0.0001808415399864316,0.19292697310447693,-0.9811649918556213
1789658050517926782,1789658050519947775,0.01383460033684969,-0.03299019858241081,0.09152120351791382,0.04010287672281265,-0.19033902883529663,9.951498985290527,0.009256645105779171,-0.0001808415399864316,0.19292697310447693,-0.9811649918556213
1789658050521338785,1789658050532135858,0.011706200428307056,-0.031925998628139496,0.09152120351791382,-0.010175356641411781,-0.1843535304069519,9.932944297790527,0.008772461675107479,-0.00168668944388628,0.19196845591068268,-0.9813559651374817
1789658050532799875,1789658050537478011,0.011706200428307056,-0.031925998628139496,0.09152120351791382,-0.010175356641411781,-0.1843535304069519,9.932944297790527,0.008772461675107479,-0.00168668944388628,0.19196845591068268,-0.9813559651374817
1789658050539895322,1789658050553273321,0.011706200428307056,-0.03086180053651333,0.09152120351791382,0.03890577703714371,-0.1885433793067932,9.86111831665039,0.009487239643931389,-0.0018812972120940685,0.19102522730827332,-0.9815331101417542
1789658050553866807,1789658050556832830,0.011706200428307056,-0.03086180053651333,0.09152120351791382,0.03890577703714371,-0.1885433793067932,9.86111831665039,0.009487239643931389,-0.0018812972120940685,0.19102522730827332,-0.9815331101417542
1789658050557667314,1789658050560364990,0.011706200428307056,-0.03086180053651333,0.09152120351791382,0.03890577703714371,-0.1885433793067932,9.86111831665039,0.009487239643931389,-0.0018812972120940685,0.19102522730827332,-0.9815331101417542
1789658050560641522,1789658050574237965,0.012770400382578373,-0.029797600582242012,0.09258539974689484,-0.014963760040700436,-0.18136078119277954,9.949105262756348,0.008741541765630245,-0.002304252702742815,0.19006699323654175,-0.9817251563072205
1789658050575089892,1789658050579184262,0.012770400382578373,-0.029797600582242012,0.09258539974689484,-0.014963760040700436,-0.18136078119277954,9.949105262756348,0.008741541765630245,-0.002304252702742815,0.19006699323654175,-0.9817251563072205
1789658050580839009,1789658050583060467,0.012770400382578373,-0.029797600582242012,0.09258539974689484,-0.014963760040700436,-0.18136078119277954,9.949105262756348,0.008741541765630245,-0.002304252702742815,0.19006699323654175,-0.9817251563072205
1789658050593275015,1789658050598434072,0.01383460033684969,-0.03086180053651333,0.09364960342645645,0.014963760040700436,-0.19033902883529663,9.846753120422363,0.00977379735559225,-0.001587121980264783,0.1891077756881714,-0.9819020628929138
1789658050598966916,1789658050601142784,0.01383460033684969,-0.03086180053651333,0.09364960342645645,0.014963760040700436,-0.19033902883529663,9.846753120422363,0.00977379735559225,-0.001587121980264783,0.1891077756881714,-0.9819020628929138
1789658050602209489,1789658050614993724,0.012770400382578373,-0.031925998628139496,0.0904569998383522,0.08200141042470932,-0.2106897532939911,9.885658264160156,0.010148433037102222,-0.001939621171914041,0.18816453218460083,-0.9820787906646729
1789658050615612727,1789658050618493294,0.012770400382578373,-0.031925998628139496,0.0904569998383522,0.08200141042470932,-0.2106897532939911,9.885658264160156,0.010148433037102222,-0.001939621171914041,0.18816453218460083,-0.9820787906646729
1789658050620235774,1789658050621791363,0.012770400382578373,-0.031925998628139496,0.0904569998383522,0.08200141042470932,-0.2106897532939911,9.885658264160156,0.010148433037102222,-0.001939621171914041,0.18816453218460083,-0.9820787906646729
1789658050625323763,1789658050636318801,0.01383460033684969,-0.029797600582242012,0.09152120351791382,-0.013168109580874443,-0.1735796183347702,9.874884605407715,0.008350206539034843,-0.002415797905996442,0.18722431361675262,-0.9822743535041809
1789658050636712359,1789658050641109445,0.01383460033684969,-0.029797600582242012,0.09152120351791382,-0.013168109580874443,-0.1735796183347702,9.874884605407715,0.008350206539034843,-0.002415797905996442,0.18722431361675262,-0.9822743535041809
1789658050641947688,1789658050646529979,0.01383460033684969,-0.029797600582242012,0.09152120351791382,-0.013168109580874443,-0.1735796183347702,9.874884605407715,0.008350206539034843,-0.002415797905996442,0.18722431361675262,-0.9822743535041809
1789658050645989952,1789658050657042465,0.012770400382578373,-0.029797600582242012,0.09258539974689484,0.04848258197307587,-0.19572599232196808,9.86889934539795,0.009403587318956852,-0.0024430251214653254,0.18627145886421204,-0.9824459552764893
1789658050657693169,1789658050662076403,0.012770400382578373,-0.029797600582242012,0.09258539974689484,0.04848258197307587,-0.19572599232196808,9.86889934539795,0.009403587318956852,-0.0024430251214653254,0.18627145886421204,-0.9824459552764893
1789658050662771973,1789658050665993197,0.012770400382578373,-0.029797600582242012,0.09258539974689484,0.04848258197307587,-0.19572599232196808,9.86889934539795,0.009403587318956852,-0.0024430251214653254,0.18627145886421204,-0.9824459552764893
1789658050666948781,1789658050679091905,0.012770400382578373,-0.031925998628139496,0.09258539974689484,-0.002992752008140087,-0.17417816817760468,9.962272644042969,0.009309180080890656,-0.002862789435312152,0.18530534207820892,-0.982628345489502
1789658050679660356,1789658050682706873,0.012770400382578373,-0.031925998628139496,0.09258539974689484,-0.002992752008140087,-0.17417816817760468,9.962272644042969,0.009309180080890656,-0.002862789435312152,0.18530534207820892,-0.982628345489502
1789658050683431829,1789658050687026409,0.012770400382578373,-0.031925998628139496,0.09258539974689484,-0.002992752008140087,-0.17417816817760468,9.962272644042969,0.009309180080890656,-0.002862789435312152,0.18530534207820892,-0.982628345489502
1789658050699091206,1789658050701000302,0.011706200428307056,-0.031925998628139496,0.09152120351791382,0.01735796220600605,-0.1538274586200714,9.895833969116211,0.007850312627851963,-0.0014137007528916001,0.18436816334724426,-0.982820451259613
1789658050702002697,1789658050706995528,0.011706200428307056,-0.031925998628139496,0.09152120351791382,0.01735796220600605,-0.1538274586200714,9.895833969116211,0.007850312627851963,-0.0014137007528916001,0.18436816334724426,-0.982820451259613
1789658050706938162,1789658050718920874,0.011706200428307056,-0.031925998628139496,0.09258539974689484,0.012569558806717396,-0.15502455830574036,9.7976713180542,0.008325012400746346,-0.0015404103323817253,0.1834137737751007,-0.9829950332641602
1789658050719983949,1789658050721848456,0.011706200428307056,-0.031925998628139496,0.09258539974689484,0.012569558806717396,-0.15502455830574036,9.7976713180542,0.008325012400746346,-0.0015404103323817253,0.1834137737751007,-0.9829950332641602
1789658050722620241,1789658050725873480,0.011706200428307056,-0.031925998628139496,0.09258539974689484,0.012569558806717396,-0.15502455830574036,9.7976713180542,0.008325012400746346,-0.0015404103323817253,0.1834137737751007,-0.9829950332641602
1789658050726771940,1789658050729413491,0.011706200428307056,-0.031925998628139496,0.09258539974689484,0.012569558806717396,-0.15502455830574036,9.7976713180542,0.008325012400746346,-0.0015404103323817253,0.1834137737751007,-0.9829950332641602
1789658050730446273,1789658050740382846,0.012770400382578373,-0.03086180053651333,0.09152120351791382,-0.030526071786880493,-0.17836801707744598,9.931148529052734,0.008551225066184998,-0.0030702229123562574,0.18245966732501984,-0.9831669926643372
1789658050740259190,1789658050743073300,0.012770400382578373,-0.03086180053651333,0.09152120351791382,-0.030526071786880493,-0.17836801707744598,9.931148529052734,0.008551225066184998,-0.0030702229123562574,0.18245966732501984,-0.9831669926643372
1789658050745265723,1789658050747378449,0.012770400382578373,-0.03086180053651333,0.09152120351791382,-0.030526071786880493,-0.17836801707744598,9.931148529052734,0.008551225066184998,-0.0030702229123562574,0.18245966732501984,-0.9831669926643372
1789658050750267534,1789658050762020210,0.011706200428307056,-0.03086180053651333,0.09152120351791382,0.0005985504249110818,-0.16101005673408508,9.792284965515137,0.008270526304841042,-0.0013694938970729709,0.18152575194835663,-0.9833461046218872
1789658050762416379,1789658050766326247,0.011706200428307056,-0.03086180053651333,0.09152120351791382,0.0005985504249110818,-0.16101005673408508,9.792284965515137,0.008270526304841042,-0.0013694938970729709,0.18152575194835663,-0.9833461046218872
1789658050766948194,1789658050770489279,0.011706200428307056,-0.03086180053651333,0.09152120351791382,0.0005985504249110818,-0.16101005673408508,9.792284965515137,0.008270526304841042,-0.0013694938970729709,0.18152575194835663,-0.9833461046218872
1789658050771197459,1789658050781907206,0.012770400382578373,-0.031925998628139496,0.0904569998383522,-0.052073884755373,-0.20350714027881622,9.909600257873535,0.008683141320943832,-0.00036049875780008733,0.1806049644947052,-0.9835129976272583
1789658050782883677,1789658050786919368,0.012770400382578373,-0.031925998628139496,0.0904569998383522,-0.052073884755373,-0.20350714027881622,9.909600257873535,0.008683141320943832,-0.00036049875780008733,0.1806049644947052,-0.9835129976272583
1789658050788855146,1789658050790910784,0.012770400382578373,-0.031925998628139496,0.0904569998383522,-0.052073884755373,-0.20350714027881622,9.909600257873535,0.008683141320943832,-0.00036049875780008733,0.1806049644947052,-0.9835129976272583
1789658050791536175,1789658050803135012,0.012770400382578373,-0.03405439853668213,0.09152120351791382,-0.017956512048840523,-0.15083470940589905,9.785101890563965,0.007507647853344679,-0.0017105786828324199,0.17964866757392883,-0.9836964011192322
1789658050805191651,1789658050807409960,0.012770400382578373,-0.03405439853668213,0.09152120351791382,-0.017956512048840523,-0.15083470940589905,9.785101890563965,0.007507647853344679,-0.0017105786828324199,0.17964866757392883,-0.9836964011192322
1789658050810276529,1789658050812030711,0.012770400382578373,-0.03405439853668213,0.09152120351791382,-0.017956512048840523,-0.15083470940589905,9.785101890563965,0.007507647853344679,-0.0017105786828324199,0.17964866757392883,-0.9836964011192322
1789658050815265619,1789658050824148634,0.011706200428307056,-0.03405439853668213,0.09258539974689484,0.06703764945268631,-0.19632454216480255,9.75397777557373,0.009096027351915836,-0.0001415884034940973,0.17869624495506287,-0.9838578701019287
1789658050824056605,1789658050825818379,0.011706200428307056,-0.03405439853668213,0.09258539974689484,0.06703764945268631,-0.19632454216480255,9.75397777557373,0.009096027351915836,-0.0001415884034940973,0.17869624495506287,-0.9838578701019287
1789658050826695341,1789658050828790920,0.011706200428307056,-0.03405439853668213,0.09258539974689484,0.06703764945268631,-0.19632454216480255,9.75397777557373,0.009096027351915836,-0.0001415884034940973,0.17869624495506287,-0.9838578701019287
1789658050830517142,1789658050833167007,0.011706200428307056,-0.03405439853668213,0.09258539974689484,0.06703764945268631,-0.19632454216480255,9.75397777557373,0.009096027351915836,-0.0001415884034940973,0.17869624495506287,-0.9838578701019287
1789658050835244107,1789658050845001232,0.014898800291121006,-0.031925998628139496,0.09152120351791382,-0.017956512048840523,-0.12868833541870117,9.81024169921875,0.008124950341880322,-0.001375200692564249,0.17773424088954926,-0.9840396642684937
1789658050845389736,1789658050848964206,0.014898800291121006,-0.031925998628139496,0.09152120351791382,-0.017956512048840523,-0.12868833541870117,9.81024169921875,0.008124950341880322,-0.001375200692564249,0.17773424088954926,-0.9840396642684937
1789658050850740369,1789658050853865452,0.014898800291121006,-0.031925998628139496,0.09152120351791382,-0.017956512048840523,-0.12868833541870117,9.81024169921875,0.008124950341880322,-0.001375200692564249,0.17773424088954926,-0.9840396642684937
1789658050855214762,1789658050865206108,0.011706200428307056,-0.03299019858241081,0.09364960342645645,0.0035913025494664907,-0.13766659796237946,9.9371337890625,0.008542926050722599,-0.00042400695383548737,0.17678487300872803,-0.9842079877853394
1789658050865722841,1789658050868016737,0.011706200428307056,-0.03299019858241081,0.09364960342645645,0.0035913025494664907,-0.13766659796237946,9.9371337890625,0.008542926050722599,-0.00042400695383548737,0.17678487300872803,-0.9842079877853394
1789658050870105780,1789658050872109237,0.011706200428307056,-0.03299019858241081,0.09364960342645645,0.0035913025494664907,-0.13766659796237946,9.9371337890625,0.008542926050722599,-0.00042400695383548737,0.17678487300872803,-0.9842079877853394
1789658050875288946,1789658050885983657,0.012770400382578373,-0.03299019858241081,0.09364960342645645,0.004189853090792894,-0.20290859043598175,9.875483512878418,0.009991336613893509,-0.0007294064853340387,0.1758071780204773,-0.9843693375587463
1789658050886355273,1789658050889093797,0.012770400382578373,-0.03299019858241081,0.09364960342645645,0.004189853090792894,-0.20290859043598175,9.875483512878418,0.009991336613893509,-0.0007294064853340387,0.1758071780204773,-0.9843693375587463
1789658050890849850,1789658050893153430,0.012770400382578373,-0.03299019858241081,0.09364960342645645,0.004189853090792894,-0.20290859043598175,9.875483512878418,0.009991336613893509,-0.0007294064853340387,0.1758071780204773,-0.9843693375587463
1789658050895225586,1789658050908610714,0.011706200428307056,-0.03405439853668213,0.09152120351791382,-0.02753331884741783,-0.15981295704841614,9.924564361572266,0.00827827025204897,-0.0011820768704637885,0.17484252154827118,-0.9845565557479858
1789658050908626287,1789658050912537784,0.011706200428307056,-0.03405439853668213,0.09152120351791382,-0.02753331884741783,-0.15981295704841614,9.924564361572266,0.00827827025204897,-0.0011820768704637885,0.17484252154827118,-0.9845565557479858
1789658050912991949,1789658050916255706,0.011706200428307056,-0.03405439853668213,0.09152120351791382,-0.02753331884741783,-0.15981295704841614,9.924564361572266,0.00827827025204897,-0.0011820768704637885,0.17484252154827118,-0.9845565557479858
1789658050917563241,1789658050928393848,0.011706200428307056,-0.031925998628139496,0.0904569998383522,0.07661445438861847,-0.16759411990642548,9.719261169433594,0.009414657019078732,0.00036655220901593566,0.17391569912433624,-0.9847111701965332
1789658050929573377,1789658050933139385,0.011706200428307056,-0.031925998628139496,0.0904569998383522,0.07661445438861847,-0.16759411990642548,9.719261169433594,0.009414657019078732,0.00036655220901593566,0.17391569912433624,-0.9847111701965332
1789658050933888247,1789658050937175946,0.011706200428307056,-0.031925998628139496,0.0904569998383522,0.07661445438861847,-0.16759411990642548,9.719261169433594,0.009414657019078732,0.00036655220901593566,0.17391569912433624,-0.9847111701965332
1789658050938498166,1789658050949440023,0.009577799588441849,-0.031925998628139496,0.09258539974689484,-0.030526071786880493,-0.21368250250816345,9.849146842956543,0.010222692973911762,-0.0011363673256710172,0.1729477047920227,-0.9848729968070984
1789658050949663448,1789658050954032961,0.009577799588441849,-0.031925998628139496,0.09258539974689484,-0.030526071786880493,-0.21368250250816345,9.849146842956543,0.010222692973911762,-0.0011363673256710172,0.1729477047920227,-0.9848729968070984
1789658050954570656,1789658050958423714,0.009577799588441849,-0.031925998628139496,0.09258539974689484,-0.030526071786880493,-0.21368250250816345,9.849146842956543,0.010222692973911762,-0.0011363673256710172,0.1729477047920227,-0.9848729968070984
1789658050958753982,1789658050970668903,0.012770400382578373,-0.03299019858241081,0.09364960342645645,-0.002394201699644327,-0.15143325924873352,9.847949981689453,0.009404022246599197,0.00015788112068548799,0.17200011014938354,-0.9850476384162903
1789658050971231336,1789658050974575383,0.012770400382578373,-0.03299019858241081,0.09364960342645645,-0.002394201699644327,-0.15143325924873352,9.847949981689453,0.009404022246599197,0.00015788112068548799,0.17200011014938354,-0.9850476384162903
1789658050975100041,1789658050980857510,0.012770400382578373,-0.03299019858241081,0.09364960342645645,-0.002394201699644327,-0.15143325924873352,9.847949981689453,0.009404022246599197,0.00015788112068548799,0.17200011014938354,-0.9850476384162903
1789658050980750538,1789658050991086724,0.012770400382578373,-0.03405439853668213,0.09258539974689484,-0.008978256024420261,-0.19273322820663452,9.857526779174805,0.008932117372751236,0.0011322454083710909,0.17104998230934143,-0.9852167963981628
1789658050992851721,1789658050994773389,0.012770400382578373,-0.03405439853668213,0.09258539974689484,-0.008978256024420261,-0.19273322820663452,9.857526779174805,0.008932117372751236,0.0011322454083710909,0.17104998230934143,-0.9852167963981628
1789658050995518121,1789658050998877907,0.012770400382578373,-0.03405439853668213,0.09258539974689484,-0.008978256024420261,-0.19273322820663452,9.857526779174805,0.008932117372751236,0.0011322454083710909,0.17104998230934143,-0.9852167963981628
1789658051000088618,1789658051012461668,0.012770400382578373,-0.03405439853668213,0.09152120351791382,0.020949264988303185,-0.1562216579914093,9.956886291503906,0.008602098561823368,-2.562673444117536e-06,0.17008225619792938,-0.985387921333313
1789658051012124178,1789658051015418100,0.012770400382578373,-0.03405439853668213,0.09152120351791382,0.020949264988303185,-0.1562216579914093,9.956886291503906,0.008602098561823368,-2.562673444117536e-06,0.17008225619792938,-0.985387921333313
1789658051015396787,1789658051018932317,0.012770400382578373,-0.03405439853668213,0.09152120351791382,0.020949264988303185,-0.1562216579914093,9.956886291503906,0.008602098561823368,-2.562673444117536e-06,0.17008225619792938,-0.985387921333313
1789658051020427578,1789658051033236703,0.01383460033684969,-0.03299019858241081,0.0904569998383522,0.055665187537670135,-0.20111294090747833,9.818022727966309,0.007841602899134159,0.0007177619263529778,0.16914327442646027,-0.9855556488037109
1789658051032527097,1789658051036477981,0.01383460033684969,-0.03299019858241081,0.0904569998383522,0.055665187537670135,-0.20111294090747833,9.818022727966309,0.007841602899134159,0.0007177619263529778,0.16914327442646027,-0.9855556488037109
1789658051036054387,1789658051039379751,0.01383460033684969,-0.03299019858241081,0.0904569998383522,0.055665187537670135,-0.20111294090747833,9.818022727966309,0.007841602899134159,0.0007177619263529778,0.16914327442646027,-0.9855556488037109
1789658051041698737,1789658051052967346,0.012770400382578373,-0.03405439853668213,0.0904569998383522,0.06224924325942993,-0.2172738015651703,9.818620681762695,0.008804116398096085,6.962947372812778e-05,0.16819506883621216,-0.9857100248336792
1789658051053534816,1789658051056907694,0.012770400382578373,-0.03405439853668213,0.0904569998383522,0.06224924325942993,-0.2172738015651703,9.818620681762695,0.008804116398096085,6.962947372812778e-05,0.16819506883621216,-0.9857100248336792
1789658051057399522,1789658051059932675,0.012770400382578373,-0.03405439853668213,0.0904569998383522,0.06224924325942993,-0.2172738015651703,9.818620681762695,0.008804116398096085,6.962947372812778e-05,0.16819506883621216,-0.9857100248336792
1789658051060758530,1789658051063033669,0.012770400382578373,-0.03405439853668213,0.0904569998383522,0.06224924325942993,-0.2172738015651703,9.818620681762695,0.008804116398096085,6.962947372812778e-05,0.16819506883621216,-0.9857100248336792
1789658051065254497,1789658051074124052,0.012770400382578373,-0.031925998628139496,0.09152120351791382,0.023343466222286224,-0.14604629576206207,10.029311180114746,0.008643856272101402,-0.0005666857468895614,0.16723783314228058,-0.9858742356300354
1789658051074187528,1789658051077918079,0.012770400382578373,-0.031925998628139496,0.09152120351791382,0.023343466222286224,-0.14604629576206207,10.029311180114746,0.008643856272101402,-0.0005666857468895614,0.16723783314228058,-0.9858742356300354
1789658051077772239,1789658051081438425,0.012770400382578373,-0.031925998628139496,0.09152120351791382,0.023343466222286224,-0.14604629576206207,10.029311180114746,0.008643856272101402,-0.0005666857468895614,0.16723783314228058,-0.9858742356300354
1789658051082282631,1789658051095243076,0.012770400382578373,-0.029797600582242012,0.09258539974689484,0.031124621629714966,-0.17417816817760468,9.807847023010254,0.009178129024803638,-0.0007154471823014319,0.16627852618694305,-0.9860314726829529
1789658051096980964,1789658051100323826,0.012770400382578373,-0.029797600582242012,0.09258539974689484,0.031124621629714966,-0.17417816817760468,9.807847023010254,0.009178129024803638,-0.0007154471823014319,0.16627852618694305,-0.9860314726829529
1789658051100882241,1789658051105025775,0.012770400382578373,-0.029797600582242012,0.09258539974689484,0.031124621629714966,-0.17417816817760468,9.807847023010254,0.009178129024803638,-0.0007154471823014319,0.16627852618694305,-0.9860314726829529
1789658051105076826,1789658051116440964,0.011706200428307056,-0.031925998628139496,0.09364960342645645,-0.008978256024420261,-0.17836801707744598,10.034697532653809,0.008339809253811836,-0.002276178216561675,0.1652996689081192,-0.9862012267112732
1789658051117017581,1789658051121261773,0.011706200428307056,-0.031925998628139496,0.09364960342645645,-0.008978256024420261,-0.17836801707744598,10.034697532653809,0.008339809253811836,-0.002276178216561675,0.1652996689081192,-0.9862012267112732
1789658051121764767,1789658051125942279,0.011706200428307056,-0.031925998628139496,0.09364960342645645,-0.008978256024420261,-0.17836801707744598,10.034697532653809,0.008339809253811836,-0.002276178216561675,0.1652996689081192,-0.9862012267112732
1789658051126522581,1789658051137450923,0.011706200428307056,-0.03299019858241081,0.09152120351791382,-0.002992752008140087,-0.15682020783424377,9.946112632751465,0.008888833224773407,-0.0013843424385413527,0.16435390710830688,-0.9863560199737549
1789658051137956620,1789658051142600463,0.011706200428307056,-0.03299019858241081,0.09152120351791382,-0.002992752008140087,-0.15682020783424377,9.946112632751465,0.008888833224773407,-0.0013843424385413527,0.16435390710830688,-0.9863560199737549
1789658051141806939,1789658051144555407,0.011706200428307056,-0.03299019858241081,0.09152120351791382,-0.002992752008140087,-0.15682020783424377,9.946112632751465,0.008888833224773407,-0.0013843424385413527,0.16435390710830688,-0.9863560199737549
1789658051145494660,1789658051158671624,0.011706200428307056,-0.03086180053651333,0.09152120351791382,0.014963760040700436,-0.1951274424791336,9.819818496704102,0.008435013704001904,-0.001673962688073516,0.163399800658226,-0.9865180253982544
1789658051158101209,1789658051159951532,0.011706200428307056,-0.03086180053651333,0.09152120351791382,0.014963760040700436,-0.1951274424791336,9.819818496704102,0.008435013704001904,-0.001673962688073516,0.163399800658226,-0.9865180253982544
1789658051160764796,1789658051165120515,0.011706200428307056,-0.03086180053651333,0.09152120351791382,0.014963760040700436,-0.1951274424791336,9.819818496704102,0.008435013704001904,-0.001673962688073516,0.163399800658226,-0.9865180253982544
1789658051165595623,1789658051179516653,0.012770400382578373,-0.03299019858241081,0.09152120351791382,-0.052073884755373,-0.14065934717655182,9.862914085388184,0.00796356238424778,-0.0029947690200060606,0.16244038939476013,-0.9866772890090942
1789658051180220129,1789658051183153934,0.012770400382578373,-0.03299019858241081,0.09152120351791382,-0.052073884755373,-0.14065934717655182,9.862914085388184,0.00796356238424778,-0.0029947690200060606,0.16244038939476013,-0.9866772890090942
1789658051185509547,1789658051187784111,0.012770400382578373,-0.03299019858241081,0.09152120351791382,-0.052073884755373,-0.14065934717655182,9.862914085388184,0.00796356238424778,-0.0029947690200060606,0.16244038939476013,-0.9866772890090942
1789658051190176499,1789658051199257869,0.01383460033684969,-0.03405439853668213,0.09152120351791382,0.016160860657691956,-0.1885433793067932,9.849146842956543,0.009161439724266529,-0.0009868533816188574,0.16150261461734772,-0.9868249297142029
1789658051199163673,1789658051203137536,0.01383460033684969,-0.03405439853668213,0.09152120351791382,0.016160860657691956,-0.1885433793067932,9.849146842956543,0.009161439724266529,-0.0009868533816188574,0.16150261461734772,-0.9868249297142029
1789658051203983853,1789658051206083080,0.01383460033684969,-0.03405439853668213,0.09152120351791382,0.016160860657691956,-0.1885433793067932,9.849146842956543,0.009161439724266529,-0.0009868533816188574,0.16150261461734772,-0.9868249297142029
1789658051207056830,1789658051220117933,0.01383460033684969,-0.031925998628139496,0.09152120351791382,-0.011372458189725876,-0.15322890877723694,9.849146842956543,0.007402998395264149,-0.0018674435559660196,0.1605459749698639,-0.9869944453239441
1789658051220675367,1789658051222876864,0.01383460033684969,-0.031925998628139496,0.09152120351791382,-0.011372458189725876,-0.15322890877723694,9.849146842956543,0.007402998395264149,-0.0018674435559660196,0.1605459749698639,-0.9869944453239441
1789658051225220978,1789658051226967958,0.01383460033684969,-0.031925998628139496,0.09152120351791382,-0.011372458189725876,-0.15322890877723694,9.849146842956543,0.007402998395264149,-0.0018674435559660196,0.1605459749698639,-0.9869944453239441
1789658051230226845,1789658051241014736,0.011706200428307056,-0.031925998628139496,0.09152120351791382,-0.038307227194309235,-0.14664484560489655,9.873088836669922,0.00761049147695303,-0.0008761330973356962,0.15960198640823364,-0.9871473908424377
1789658051241384000,1789658051243648010,0.011706200428307056,-0.031925998628139496,0.09152120351791382,-0.038307227194309235,-0.14664484560489655,9.873088836669922,0.00761049147695303,-0.0008761330973356962,0.15960198640823364,-0.9871473908424377
1789658051245231060,1789658051248825030,0.011706200428307056,-0.031925998628139496,0.09152120351791382,-0.038307227194309235,-0.14664484560489655,9.873088836669922,0.00761049147695303,-0.0008761330973356962,0.15960198640823364,-0.9871473908424377
1789658051250236001,1789658051262671084,0.01383460033684969,-0.029797600582242012,0.09152120351791382,0.004189853090792894,-0.17477671802043915,9.792284965515137,0.008273816667497158,-0.001499729696661234,0.15865221619606018,-0.9872943758964539
1789658051262105262,1789658051264005785,0.01383460033684969,-0.029797600582242012,0.09152120351791382,0.004189853090792894,-0.17477671802043915,9.792284965515137,0.008273816667497158,-0.001499729696661234,0.15865221619606018,-0.9872943758964539
1789658051265629534,1789658051269917778,0.01383460033684969,-0.029797600582242012,0.09152120351791382,0.004189853090792894,-0.17477671802043915,9.792284965515137,0.008273816667497158,-0.001499729696661234,0.15865221619606018,-0.9872943758964539
1789658051270610034,1789658051282838968,0.01383460033684969,-0.031925998628139496,0.09152120351791382,-0.13168108463287354,-0.15682020783424377,9.83119010925293,0.007334953639656305,-0.0007107662386260927,0.15770509839057922,-0.9874544739723206
1789658051283711948,1789658051288617639,0.01383460033684969,-0.031925998628139496,0.09152120351791382,-0.13168108463287354,-0.15682020783424377,9.83119010925293,0.007334953639656305,-0.0007107662386260927,0.15770509839057922,-0.9874544739723206
1789658051289938433,1789658051292304194,0.01383460033684969,-0.031925998628139496,0.09152120351791382,-0.13168108463287354,-0.15682020783424377,9.83119010925293,0.007334953639656305,-0.0007107662386260927,0.15770509839057922,-0.9874544739723206
1789658051292695512,1789658051308960748,0.012770400382578373,-0.03405439853668213,0.09152120351791382,-0.043095629662275314,-0.1777694672346115,9.837774276733398,0.008630775846540928,-0.0010375101119279861,0.15674355626106262,-0.9875966906547546
1789658051305238752,1789658051310141591,0.012770400382578373,-0.03405439853668213,0.09152120351791382,-0.043095629662275314,-0.1777694672346115,9.837774276733398,0.008630775846540928,-0.0010375101119279861,0.15674355626106262,-0.9875966906547546
1789658051310527892,1789658051313346372,0.012770400382578373,-0.03405439853668213,0.09152120351791382,-0.043095629662275314,-0.1777694672346115,9.837774276733398,0.008630775846540928,-0.0010375101119279861,0.15674355626106262,-0.9875966906547546
1789658051315774590,1789658051324985079,0.011706200428307056,-0.029797600582242012,0.09152120351791382,-0.01735796220600605,-0.20709843933582306,9.876680374145508,0.008044928312301636,-0.0002124591264873743,0.15580162405967712,-0.9877511858940125
1789658051325069535,1789658051327072752,0.011706200428307056,-0.029797600582242012,0.09152120351791382,-0.01735796220600605,-0.20709843933582306,9.876680374145508,0.008044928312301636,-0.0002124591264873743,0.15580162405967712,-0.9877511858940125
1789658051330243443,1789658051334161274,0.011706200428307056,-0.029797600582242012,0.09152120351791382,-0.01735796220600605,-0.20709843933582306,9.876680374145508,0.008044928312301636,-0.0002124591264873743,0.15580162405967712,-0.9877511858940125
1789658051335233979,1789658051345175960,0.011706200428307056,-0.03086180053651333,0.09258539974689484,-0.013168109580874443,-0.17298106849193573,9.860519409179688,0.009104195982217789,-0.0001427213428542018,0.1548396795988083,-0.9878933429718018
1789658051345169702,1789658051348399869,0.011706200428307056,-0.03086180053651333,0.09258539974689484,-0.013168109580874443,-0.17298106849193573,9.860519409179688,0.009104195982217789,-0.0001427213428542018,0.1548396795988083,-0.9878933429718018
1789658051350191197,1789658051351928882,0.011706200428307056,-0.03086180053651333,0.09258539974689484,-0.013168109580874443,-0.17298106849193573,9.860519409179688,0.009104195982217789,-0.0001427213428542018,0.1548396795988083,-0.9878933429718018
1789658051355259411,1789658051367139116,0.012770400382578373,-0.03299019858241081,0.09152120351791382,-0.0065840547904372215,-0.20530278980731964,9.855133056640625,0.009638357907533646,-0.0015212259022518992,0.1538762003183365,-0.9880375862121582
1789658051367041550,1789658051372682548,0.012770400382578373,-0.03299019858241081,0.09152120351791382,-0.0065840547904372215,-0.20530278980731964,9.855133056640625,0.009638357907533646,-0.0015212259022518992,0.1538762003183365,-0.9880375862121582
1789658051371946000,1789658051376547402,0.012770400382578373,-0.03299019858241081,0.09152120351791382,-0.0065840547904372215,-0.20530278980731964,9.855133056640625,0.009638357907533646,-0.0015212259022518992,0.1538762003183365,-0.9880375862121582
1789658051378457331,1789658051387814011,0.012770400382578373,-0.03299019858241081,0.0904569998383522,-0.0035913025494664907,-0.14245499670505524,9.850942611694336,0.008328879252076149,-0.0003330839390400797,0.1529412865638733,-0.9881957769393921
1789658051387789236,1789658051391958249,0.012770400382578373,-0.03299019858241081,0.0904569998383522,-0.0035913025494664907,-0.14245499670505524,9.850942611694336,0.008328879252076149,-0.0003330839390400797,0.1529412865638733,-0.9881957769393921
1789658051393878288,1789658051396429125,0.012770400382578373,-0.03299019858241081,0.0904569998383522,-0.0035913025494664907,-0.14245499670505524,9.850942611694336,0.008328879252076149,-0.0003330839390400797,0.1529412865638733,-0.9881957769393921
1789658051396746524,1789658051408598101,0.012770400382578373,-0.03299019858241081,0.0904569998383522,-0.028730420395731926,-0.15442600846290588,9.947907447814941,0.008332990109920502,0.0007101738010533154,0.15201254189014435,-0.988338828086853
1789658051409108928,1789658051414303483,0.012770400382578373,-0.03299019858241081,0.0904569998383522,-0.028730420395731926,-0.15442600846290588,9.947907447814941,0.008332990109920502,0.0007101738010533154,0.15201254189014435,-0.988338828086853
1789658051414601198,1789658051417673231,0.012770400382578373,-0.03299019858241081,0.0904569998383522,-0.028730420395731926,-0.15442600846290588,9.947907447814941,0.008332990109920502,0.0007101738010533154,0.15201254189014435,-0.988338828086853
1789658051417874788,1789658051429476424,0.012770400382578373,-0.03405439853668213,0.09258539974689484,-0.046088382601737976,-0.19273322820663452,9.836577415466309,0.009352614171802998,0.001232110196724534,0.15104244649410248,-0.9884779453277588
1789658051429980362,1789658051434154763,0.012770400382578373,-0.03405439853668213,0.09258539974689484,-0.046088382601737976,-0.19273322820663452,9.836577415466309,0.009352614171802998,0.001232110196724534,0.15104244649410248,-0.9884779453277588
1789658051435124736,1789658051438996775,0.012770400382578373,-0.03405439853668213,0.09258539974689484,-0.046088382601737976,-0.19273322820663452,9.836577415466309,0.009352614171802998,0.001232110196724534,0.15104244649410248,-0.9884779453277588
1789658051440517941,1789658051450657998,0.009577799588441849,-0.031925998628139496,0.09152120351791382,0.04010287672281265,-0.18315643072128296,9.86111831665039,0.009320051409304142,0.0006413783994503319,0.15007349848747253,-0.9886263608932495
1789658051450757026,1789658051453790674,0.009577799588441849,-0.031925998628139496,0.09152120351791382,0.04010287672281265,-0.18315643072128296,9.86111831665039,0.009320051409304142,0.0006413783994503319,0.15007349848747253,-0.9886263608932495
1789658051455398221,1789658051458855018,0.009577799588441849,-0.031925998628139496,0.09152120351791382,0.04010287672281265,-0.18315643072128296,9.86111831665039,0.009320051409304142,0.0006413783994503319,0.15007349848747253,-0.9886263608932495
1789658051460065766,1789658051471958654,0.010641999542713165,-0.03086180053651333,0.0904569998383522,0.05985504016280174,-0.18794482946395874,9.865307807922363,0.010100973770022392,0.0006737649673596025,0.1491217315196991,-0.9887625575065613
1789658051471352262,1789658051474808133,0.010641999542713165,-0.03086180053651333,0.0904569998383522,0.05985504016280174,-0.18794482946395874,9.865307807922363,0.010100973770022392,0.0006737649673596025,0.1491217315196991,-0.9887625575065613
1789658051475347234,1789658051478230080,0.010641999542713165,-0.03086180053651333,0.0904569998383522,0.05985504016280174,-0.18794482946395874,9.865307807922363,0.010100973770022392,0.0006737649673596025,0.1491217315196991,-0.9887625575065613
1789658051480197393,1789658051491999882,0.011706200428307056,-0.03086180053651333,0.09258539974689484,0.0065840547904372215,-0.16998831927776337,9.926360130310059,0.009128585457801819,-0.0006017483538016677,0.14815302193164825,-0.9889178276062012
1789658051493327398,1789658051495949155,0.011706200428307056,-0.03086180053651333,0.09258539974689484,0.0065840547904372215,-0.16998831927776337,9.926360130310059,0.009128585457801819,-0.0006017483538016677,0.14815302193164825,-0.9889178276062012
1789658051497258117,1789658051501192668,0.011706200428307056,-0.03086180053651333,0.09258539974689484,0.0065840547904372215,-0.16998831927776337,9.926360130310059,0.009128585457801819,-0.0006017483538016677,0.14815302193164825,-0.9889178276062012
1789658051501836317,1789658051512769862,0.012770400382578373,-0.028733400627970695,0.09258539974689484,0.04249707981944084,-0.15322890877723694,9.909600257873535,0.009603956714272499,-0.0007091438747011125,0.14719030261039734,-0.9890569448471069
1789658051512998157,1789658051516394810,0.012770400382578373,-0.028733400627970695,0.09258539974689484,0.04249707981944084,-0.15322890877723694,9.909600257873535,0.009603956714272499,-0.0007091438747011125,0.14719030261039734,-0.9890569448471069
1789658051516586146,1789658051519431161,0.012770400382578373,-0.028733400627970695,0.09258539974689484,0.04249707981944084,-0.15322890877723694,9.909600257873535,0.009603956714272499,-0.0007091438747011125,0.14719030261039734,-0.9890569448471069
1789658051520538548,1789658051533655110,0.011706200428307056,-0.03299019858241081,0.09258539974689484,0.05147533491253853,-0.193331778049469,9.985017776489258,0.009066086262464523,-0.0009323827689513564,0.1462254822254181,-0.9892049431800842
1789658051533789691,1789658051536191152,0.011706200428307056,-0.03299019858241081,0.09258539974689484,0.05147533491253853,-0.193331778049469,9.985017776489258,0.009066086262464523,-0.0009323827689513564,0.1462254822254181,-0.9892049431800842
1789658051537145255,1789658051540870214,0.011706200428307056,-0.03299019858241081,0.09258539974689484,0.05147533491253853,-0.193331778049469,9.985017776489258,0.009066086262464523,-0.0009323827689513564,0.1462254822254181,-0.9892049431800842
1789658051541159930,1789658051554070824,0.011706200428307056,-0.03086180053651333,0.09152120351791382,0.08499415963888168,-0.11911153048276901,9.916184425354004,0.007871615700423717,-0.0009824585868045688,0.14527970552444458,-0.9893544316291809
1789658051554682438,1789658051555857207,0.011706200428307056,-0.03086180053651333,0.09152120351791382,0.08499415963888168,-0.11911153048276901,9.916184425354004,0.007871615700423717,-0.0009824585868045688,0.14527970552444458,-0.9893544316291809
1789658051556707061,1789658051558856376,0.011706200428307056,-0.03086180053651333,0.09152120351791382,0.08499415963888168,-0.11911153048276901,9.916184425354004,0.007871615700423717,-0.0009824585868045688,0.14527970552444458,-0.9893544316291809
1789658051560437574,1789658051564049469,0.011706200428307056,-0.03086180053651333,0.09152120351791382,0.08499415963888168,-0.11911153048276901,9.916184425354004,0.007871615700423717,-0.0009824585868045688,0.14527970552444458,-0.9893544316291809
1789658051565197796,1789658051575117317,0.011706200428307056,-0.03086180053651333,0.09152120351791382,0.06643909960985184,-0.20949263870716095,9.933542251586914,0.009533284232020378,-0.0002912484051194042,0.1443440020084381,-0.989477276802063
1789658051575183663,1789658051577216729,0.011706200428307056,-0.03086180053651333,0.09152120351791382,0.06643909960985184,-0.20949263870716095,9.933542251586914,0.009533284232020378,-0.0002912484051194042,0.1443440020084381,-0.989477276802063
1789658051580376885,1789658051584914977,0.011706200428307056,-0.03086180053651333,0.09152120351791382,0.06643909960985184,-0.20949263870716095,9.933542251586914,0.009533284232020378,-0.0002912484051194042,0.1443440020084381,-0.989477276802063
1789658051595412578,1789658051599163275,0.012770400382578373,-0.029797600582242012,0.08939280360937119,0.031124621629714966,-0.17298106849193573,10.02452278137207,0.008978135883808136,-0.0006587659008800983,0.1434074342250824,-0.9896184802055359
1789658051600096084,1789658051603019723,0.012770400382578373,-0.029797600582242012,0.08939280360937119,0.031124621629714966,-0.17298106849193573,10.02452278137207,0.008978135883808136,-0.0006587659008800983,0.1434074342250824,-0.9896184802055359
1789658051605294213,1789658051617177528,0.01383460033684969,-0.03086180053651333,0.0904569998383522,0.020949264988303185,-0.1478419452905655,9.933542251586914,0.009390465915203094,-0.000840723339933902,0.14247293770313263,-0.9897494316101074
1789658051617085777,1789658051618902880,0.01383460033684969,-0.03086180053651333,0.0904569998383522,0.020949264988303185,-0.1478419452905655,9.933542251586914,0.009390465915203094,-0.000840723339933902,0.14247293770313263,-0.9897494316101074
1789658051620377106,1789658051624161282,0.01383460033684969,-0.03086180053651333,0.0904569998383522,0.020949264988303185,-0.1478419452905655,9.933542251586914,0.009390465915203094,-0.000840723339933902,0.14247293770313263,-0.9897494316101074
1789658051625093443,1789658051638708165,0.014898800291121006,-0.031925998628139496,0.09152120351791382,0.05626373738050461,-0.20111294090747833,9.965266227722168,0.00996824074536562,-0.001076664193533361,0.14152079820632935,-0.9898802042007446
1789658051638277535,1789658051641565476,0.014898800291121006,-0.031925998628139496,0.09152120351791382,0.05626373738050461,-0.20111294090747833,9.965266227722168,0.00996824074536562,-0.001076664193533361,0.14152079820632935,-0.9898802042007446
1789658051641008098,1789658051645030475,0.014898800291121006,-0.031925998628139496,0.09152120351791382,0.05626373738050461,-0.20111294090747833,9.965266227722168,0.00996824074536562,-0.001076664193533361,0.14152079820632935,-0.9898802042007446
1789658051647001344,1789658051658179608,0.01383460033684969,-0.03086180053651333,0.09152120351791382,-0.03711012750864029,-0.17178396880626678,9.88086986541748,0.008490039967000484,-0.0020538473036140203,0.14054949581623077,-0.9900307059288025
1789658051658870549,1789658051660909208,0.01383460033684969,-0.03086180053651333,0.09152120351791382,-0.03711012750864029,-0.17178396880626678,9.88086986541748,0.008490039967000484,-0.0020538473036140203,0.14054949581623077,-0.9900307059288025
1789658051661744580,1789658051666083450,0.01383460033684969,-0.03086180053651333,0.09152120351791382,-0.03711012750864029,-0.17178396880626678,9.88086986541748,0.008490039967000484,-0.0020538473036140203,0.14054949581623077,-0.9900307059288025
1789658051667248479,1789658051680127913,0.012770400382578373,-0.031925998628139496,0.09258539974689484,0.004788403399288654,-0.18614917993545532,9.852139472961426,0.009196790866553783,-0.000829882628750056,0.13960105180740356,-0.9901604056358337
1789658051680809669,1789658051684214044,0.012770400382578373,-0.031925998628139496,0.09258539974689484,0.004788403399288654,-0.18614917993545532,9.852139472961426,0.009196790866553783,-0.000829882628750056,0.13960105180740356,-0.9901604056358337
1789658051685896808,1789658051689405711,0.012770400382578373,-0.031925998628139496,0.09258539974689484,0.004788403399288654,-0.18614917993545532,9.852139472961426,0.009196790866553783,-0.000829882628750056,0.13960105180740356,-0.9901604056358337
1789658051690483563,1789658051700329904,0.011706200428307056,-0.031925998628139496,0.09152120351791382,-0.05267243832349777,-0.2148796021938324,9.883264541625977,0.008492495864629745,-0.0018832706846296787,0.13862337172031403,-0.990302562713623
1789658051700249374,1789658051703329277,0.011706200428307056,-0.031925998628139496,0.09152120351791382,-0.05267243832349777,-0.2148796021938324,9.883264541625977,0.008492495864629745,-0.0018832706846296787,0.13862337172031403,-0.990302562713623
1789658051705203191,1789658051707408150,0.011706200428307056,-0.031925998628139496,0.09152120351791382,-0.05267243832349777,-0.2148796021938324,9.883264541625977,0.008492495864629745,-0.0018832706846296787,0.13862337172031403,-0.990302562713623
1789658051710234778,1789658051720941157,0.010641999542713165,-0.03086180053651333,0.09152120351791382,-0.0347159244120121,-0.1430535465478897,9.803058624267578,0.00702335499227047,-0.0018509168876335025,0.13766886293888092,-0.9904474020004272
1789658051721001004,1789658051722795961,0.010641999542713165,-0.03086180053651333,0.09152120351791382,-0.0347159244120121,-0.1430535465478897,9.803058624267578,0.00702335499227047,-0.0018509168876335025,0.13766886293888092,-0.9904474020004272
1789658051725137409,1789658051727993183,0.010641999542713165,-0.03086180053651333,0.09152120351791382,-0.0347159244120121,-0.1430535465478897,9.803058624267578,0.00702335499227047,-0.0018509168876335025,0.13766886293888092,-0.9904474020004272
1789658051730195031,1789658051742761306,0.010641999542713165,-0.03299019858241081,0.09258539974689484,0.0586579404771328,-0.17178396880626678,9.815628051757812,0.008156063966453075,-0.0017643833998590708,0.13670854270458221,-0.9905718564987183
1789658051742176505,1789658051744543228,0.010641999542713165,-0.03299019858241081,0.09258539974689484,0.0586579404771328,-0.17178396880626678,9.815628051757812,0.008156063966453075,-0.0017643833998590708,0.13670854270458221,-0.9905718564987183
1789658051746085873,1789658051750166394,0.010641999542713165,-0.03299019858241081,0.09258539974689484,0.0586579404771328,-0.17178396880626678,9.815628051757812,0.008156063966453075,-0.0017643833998590708,0.13670854270458221,-0.9905718564987183
1789658051750784823,1789658051762887286,0.012770400382578373,-0.03086180053651333,0.09152120351791382,-0.076015904545784,-0.14365209639072418,9.859322547912598,0.009007913060486317,-0.0017056401120498776,0.13575178384780884,-0.9906960725784302
1789658051763865165,1789658051767346404,0.012770400382578373,-0.03086180053651333,0.09152120351791382,-0.076015904545784,-0.14365209639072418,9.859322547912598,0.009007913060486317,-0.0017056401120498776,0.13575178384780884,-0.9906960725784302
1789658051768074323,1789658051775643193,0.012770400382578373,-0.03086180053651333,0.09152120351791382,-0.076015904545784,-0.14365209639072418,9.859322547912598,0.009007913060486317,-0.0017056401120498776,0.13575178384780884,-0.9906960725784302
1789658051771147893,1789658051784389814,0.011706200428307056,-0.03086180053651333,0.09152120351791382,-0.012569558806717396,-0.16160860657691956,9.825204849243164,0.009584118612110615,-0.0011421736562624574,0.1347944289445877,-0.9908221960067749
1789658051784752450,1789658051787940158,0.011706200428307056,-0.03086180053651333,0.09152120351791382,-0.012569558806717396,-0.16160860657691956,9.825204849243164,0.009584118612110615,-0.0011421736562624574,0.1347944289445877,-0.9908221960067749
1789658051790875647,1789658051793297107,0.011706200428307056,-0.03086180053651333,0.09152120351791382,-0.012569558806717396,-0.16160860657691956,9.825204849243164,0.009584118612110615,-0.0011421736562624574,0.1347944289445877,-0.9908221960067749
1789658051795135764,1789658051805682749,0.012770400382578373,-0.031925998628139496,0.09258539974689484,-0.046088382601737976,-0.2172738015651703,9.909600257873535,0.00893828272819519,-0.00034606383997015655,0.1338501125574112,-0.9909569025039673
1789658051805189254,1789658051807554515,0.012770400382578373,-0.031925998628139496,0.09258539974689484,-0.046088382601737976,-0.2172738015651703,9.909600257873535,0.00893828272819519,-0.00034606383997015655,0.1338501125574112,-0.9909569025039673
1789658051810191900,1789658051814124396,0.012770400382578373,-0.031925998628139496,0.09258539974689484,-0.046088382601737976,-0.2172738015651703,9.909600257873535,0.00893828272819519,-0.00034606383997015655,0.1338501125574112,-0.9909569025039673
1789658051815200471,1789658051825053682,0.010641999542713165,-0.03299019858241081,0.09258539974689484,-0.04429272934794426,-0.16160860657691956,9.841365814208984,0.007740612141788006,-0.001489221234805882,0.13287456333637238,-0.9910972118377686
1789658051824998132,1789658051829220455,0.010641999542713165,-0.03299019858241081,0.09258539974689484,-0.04429272934794426,-0.16160860657691956,9.841365814208984,0.007740612141788006,-0.001489221234805882,0.13287456333637238,-0.9910972118377686
1789658051830326323,1789658051832013808,0.010641999542713165,-0.03299019858241081,0.09258539974689484,-0.04429272934794426,-0.16160860657691956,9.841365814208984,0.007740612141788006,-0.001489221234805882,0.13287456333637238,-0.9910972118377686
1789658051835160353,1789658051847177583,0.010641999542713165,-0.031925998628139496,0.09364960342645645,0.04728548228740692,-0.15562310814857483,9.750386238098145,0.008666008710861206,0.0001694912207312882,0.131921648979187,-0.9912179112434387
1789658051846916902,1789658051849199595,0.010641999542713165,-0.031925998628139496,0.09364960342645645,0.04728548228740692,-0.15562310814857483,9.750386238098145,0.008666008710861206,0.0001694912207312882,0.131921648979187,-0.9912179112434387
1789658051850449581,1789658051853360646,0.010641999542713165,-0.031925998628139496,0.09364960342645645,0.04728548228740692,-0.15562310814857483,9.750386238098145,0.008666008710861206,0.0001694912207312882,0.131921648979187,-0.9912179112434387
1789658051855130291,1789658051867275176,0.010641999542713165,-0.03299019858241081,0.09258539974689484,-0.07182604819536209,-0.1562216579914093,9.827000617980957,0.009533857926726341,-0.0006655056495219469,0.13093750178813934,-0.9913402199745178
1789658051867188795,1789658051869154200,0.010641999542713165,-0.03299019858241081,0.09258539974689484,-0.07182604819536209,-0.1562216579914093,9.827000617980957,0.009533857926726341,-0.0006655056495219469,0.13093750178813934,-0.9913402199745178
1789658051870801022,1789658051874102684,0.010641999542713165,-0.03299019858241081,0.09258539974689484,-0.07182604819536209,-0.1562216579914093,9.827000617980957,0.009533857926726341,-0.0006655056495219469,0.13093750178813934,-0.9913402199745178
1789658051875557930,1789658051888237417,0.012770400382578373,-0.03299019858241081,0.09152120351791382,0.013766659423708916,-0.11971008032560349,9.869498252868652,0.008662466891109943,0.0008435503696091473,0.13000185787677765,-0.9914711713790894
1789658051889317547,1789658051893058949,0.012770400382578373,-0.03299019858241081,0.09152120351791382,0.013766659423708916,-0.11971008032560349,9.869498252868652,0.008662466891109943,0.0008435503696091473,0.13000185787677765,-0.9914711713790894
1789658051894995264,1789658051896958744,0.012770400382578373,-0.03299019858241081,0.09152120351791382,0.013766659423708916,-0.11971008032560349,9.869498252868652,0.008662466891109943,0.0008435503696091473,0.13000185787677765,-0.9914711713790894
1789658051900157804,1789658051910072936,0.012770400382578373,-0.03299019858241081,0.0904569998383522,-0.06404489278793335,-0.18794482946395874,9.834183692932129,0.007562987972050905,0.0012408260954543948,0.12906016409397125,-0.9916027784347534
1789658051910214998,1789658051913256589,0.012770400382578373,-0.03299019858241081,0.0904569998383522,-0.06404489278793335,-0.18794482946395874,9.834183692932129,0.007562987972050905,0.0012408260954543948,0.12906016409397125,-0.9916027784347534
1789658051915269583,1789658051918085842,0.012770400382578373,-0.03299019858241081,0.0904569998383522,-0.06404489278793335,-0.18794482946395874,9.834183692932129,0.007562987972050905,0.0012408260954543948,0.12906016409397125,-0.9916027784347534
1789658051920162682,1789658051930116182,0.01383460033684969,-0.03405439853668213,0.09152120351791382,-0.005985504016280174,-0.17717091739177704,9.852139472961426,0.008478508330881596,-0.0002055462682619691,0.12809260189533234,-0.991721510887146
1789658051930170899,1789658051932329603,0.01383460033684969,-0.03405439853668213,0.09152120351791382,-0.005985504016280174,-0.17717091739177704,9.852139472961426,0.008478508330881596,-0.0002055462682619691,0.12809260189533234,-0.991721510887146
1789658051935158101,1789658051939689269,0.01383460033684969,-0.03405439853668213,0.09152120351791382,-0.005985504016280174,-0.17717091739177704,9.852139472961426,0.008478508330881596,-0.0002055462682619691,0.12809260189533234,-0.991721510887146
1789658051940521660,1789658051951230076,0.012770400382578373,-0.031925998628139496,0.09258539974689484,0.07062894850969315,-0.14664484560489655,9.813234329223633,0.0072567397728562355,0.0002753494190983474,0.12713122367858887,-0.9918550252914429
1789658051951092273,1789658051952867140,0.012770400382578373,-0.031925998628139496,0.09258539974689484,0.07062894850969315,-0.14664484560489655,9.813234329223633,0.0072567397728562355,0.0002753494190983474,0.12713122367858887,-0.9918550252914429
1789658051955145000,1789658051957832418,0.012770400382578373,-0.031925998628139496,0.09258539974689484,0.07062894850969315,-0.14664484560489655,9.813234329223633,0.0072567397728562355,0.0002753494190983474,0.12713122367858887,-0.9918550252914429
1789658051960138647,1789658051971391831,0.01383460033684969,-0.03086180053651333,0.09152120351791382,0.06464344263076782,-0.1759738177061081,9.880271911621094,0.007846301421523094,-0.00014437799109146,0.12617290019989014,-0.9919728636741638
1789658051971451251,1789658051975716479,0.01383460033684969,-0.03086180053651333,0.09152120351791382,0.06464344263076782,-0.1759738177061081,9.880271911621094,0.007846301421523094,-0.00014437799109146,0.12617290019989014,-0.9919728636741638
1789658051975032815,1789658051979087190,0.01383460033684969,-0.03086180053651333,0.09152120351791382,0.06464344263076782,-0.1759738177061081,9.880271911621094,0.007846301421523094,-0.00014437799109146,0.12617290019989014,-0.9919728636741638
1789658051980590987,1789658051992621419,0.012770400382578373,-0.03086180053651333,0.09258539974689484,-0.016160860657691956,-0.17657236754894257,10.059836387634277,0.008947295136749744,-0.0005299864569678903,0.12520617246627808,-0.992085874080658
1789658051995150573,1789658051998205700,0.012770400382578373,-0.03086180053651333,0.09258539974689484,-0.016160860657691956,-0.17657236754894257,10.059836387634277,0.008947295136749744,-0.0005299864569678903,0.12520617246627808,-0.992085874080658
1789658052000200955,1789658052013116739,0.012770400382578373,-0.029797600582242012,0.09152120351791382,0.04908113554120064,-0.17417816817760468,9.88386344909668,0.009426203556358814,-0.0007403116906061769,0.12424929440021515,-0.9922016263008118
1789658052013147589,1789658052015476260,0.012770400382578373,-0.029797600582242012,0.09152120351791382,0.04908113554120064,-0.17417816817760468,9.88386344909668,0.009426203556358814,-0.0007403116906061769,0.12424929440021515,-0.9922016263008118
1789658052016609441,1789658052020228335,0.012770400382578373,-0.029797600582242012,0.09152120351791382,0.04908113554120064,-0.17417816817760468,9.88386344909668,0.009426203556358814,-0.0007403116906061769,0.12424929440021515,-0.9922016263008118
1789658052020868966,1789658052034904692,0.011706200428307056,-0.03086180053651333,0.09258539974689484,-0.01975216343998909,-0.1711854189634323,9.966463088989258,0.008383014239370823,-0.0020336047746241093,0.12328263372182846,-0.9923297166824341
1789658052035051661,1789658052040641591,0.011706200428307056,-0.03086180053651333,0.09258539974689484,-0.01975216343998909,-0.1711854189634323,9.966463088989258,0.008383014239370823,-0.0020336047746241093,0.12328263372182846,-0.9923297166824341
1789658052040191703,1789658052043399707,0.011706200428307056,-0.03086180053651333,0.09258539974689484,-0.01975216343998909,-0.1711854189634323,9.966463088989258,0.008383014239370823,-0.0020336047746241093,0.12328263372182846,-0.9923297166824341
1789658052045513804,1789658052055020899,0.012770400382578373,-0.03299019858241081,0.09258539974689484,0.055665187537670135,-0.16998831927776337,9.979032516479492,0.009079530835151672,3.104075585724786e-05,0.12234023958444595,-0.9924423694610596
1789658052055162331,1789658052057196250,0.012770400382578373,-0.03299019858241081,0.09258539974689484,0.055665187537670135,-0.16998831927776337,9.979032516479492,0.009079530835151672,3.104075585724786e-05,0.12234023958444595,-0.9924423694610596
1789658052060136054,1789658052062834046,0.012770400382578373,-0.03299019858241081,0.09258539974689484,0.055665187537670135,-0.16998831927776337,9.979032516479492,0.009079530835151672,3.104075585724786e-05,0.12234023958444595,-0.9924423694610596
1789658052065257227,1789658052076306728,0.011706200428307056,-0.03299019858241081,0.09152120351791382,0.033518824726343155,-0.17417816817760468,9.840766906738281,0.008855393156409264,-0.00030855488148517907,0.12137909233570099,-0.9925622940063477
1789658052076215828,1789658052077996916,0.011706200428307056,-0.03299019858241081,0.09152120351791382,0.033518824726343155,-0.17417816817760468,9.840766906738281,0.008855393156409264,-0.00030855488148517907,0.12137909233570099,-0.9925622940063477
1789658052080160843,1789658052083787255,0.011706200428307056,-0.03299019858241081,0.09152120351791382,0.033518824726343155,-0.17417816817760468,9.840766906738281,0.008855393156409264,-0.00030855488148517907,0.12137909233570099,-0.9925622940063477
1789658052085266888,1789658052098936608,0.012770400382578373,-0.029797600582242012,0.09152120351791382,-0.002992752008140087,-0.16101005673408508,9.95090103149414,0.007681229617446661,-0.00024383784329984337,0.1204286739230156,-0.9926878213882446
1789658052097414757,1789658052101446468,0.012770400382578373,-0.029797600582242012,0.09152120351791382,-0.002992752008140087,-0.16101005673408508,9.95090103149414,0.007681229617446661,-0.00024383784329984337,0.1204286739230156,-0.9926878213882446
1789658052102754949,1789658052106327106,0.012770400382578373,-0.029797600582242012,0.09152120351791382,-0.002992752008140087,-0.16101005673408508,9.95090103149414,0.007681229617446661,-0.00024383784329984337,0.1204286739230156,-0.9926878213882446
1789658052107130741,1789658052117123887,0.012770400382578373,-0.029797600582242012,0.09152120351791382,0.08978256583213806,-0.16579847037792206,9.818620681762695,0.008395520970225334,-0.000431795691838488,0.1194722056388855,-0.9927976131439209
1789658052117897951,1789658052119861820,0.012770400382578373,-0.029797600582242012,0.09152120351791382,0.08978256583213806,-0.16579847037792206,9.818620681762695,0.008395520970225334,-0.000431795691838488,0.1194722056388855,-0.9927976131439209
1789658052120925118,1789658052123893734,0.012770400382578373,-0.029797600582242012,0.09152120351791382,0.08978256583213806,-0.16579847037792206,9.818620681762695,0.008395520970225334,-0.000431795691838488,0.1194722056388855,-0.9927976131439209
1789658052125606977,1789658052139082159,0.012770400382578373,-0.029797600582242012,0.09152120351791382,-0.0071826050989329815,-0.1628057062625885,9.967061042785645,0.008324661292135715,-0.0011122622527182102,0.11850489675998688,-0.992913544178009
1789658052138408216,1789658052142648798,0.012770400382578373,-0.029797600582242012,0.09152120351791382,-0.0071826050989329815,-0.1628057062625885,9.967061042785645,0.008324661292135715,-0.0011122622527182102,0.11850489675998688,-0.992913544178009
1789658052143251432,1789658052148401473,0.012770400382578373,-0.029797600582242012,0.09152120351791382,-0.0071826050989329815,-0.1628057062625885,9.967061042785645,0.008324661292135715,-0.0011122622527182102,0.11850489675998688,-0.992913544178009
1789658052146128112,1789658052159078635,0.01383460033684969,-0.03086180053651333,0.0904569998383522,0.043095629662275314,-0.14604629576206207,9.93593692779541,0.009125415235757828,-0.0006605348899029195,0.11755650490522385,-0.9930197596549988
1789658052159640161,1789658052160878999,0.01383460033684969,-0.03086180053651333,0.0904569998383522,0.043095629662275314,-0.14604629576206207,9.93593692779541,0.009125415235757828,-0.0006605348899029195,0.11755650490522385,-0.9930197596549988
1789658052161725057,1789658052164840420,0.01383460033684969,-0.03086180053651333,0.0904569998383522,0.043095629662275314,-0.14604629576206207,9.93593692779541,0.009125415235757828,-0.0006605348899029195,0.11755650490522385,-0.9930197596549988
1789658052165081196,1789658052167975319,0.01383460033684969,-0.03086180053651333,0.0904569998383522,0.043095629662275314,-0.14604629576206207,9.93593692779541,0.009125415235757828,-0.0006605348899029195,0.11755650490522385,-0.9930197596549988
1789658052170173242,1789658052180847015,0.01383460033684969,-0.03086180053651333,0.0904569998383522,0.020949264988303185,-0.22685061395168304,9.841365814208984,0.009348612278699875,-0.0013605012791231275,0.11660375446081161,-0.9931292533874512
1789658052180171776,1789658052182719299,0.01383460033684969,-0.03086180053651333,0.0904569998383522,0.020949264988303185,-0.22685061395168304,9.841365814208984,0.009348612278699875,-0.0013605012791231275,0.11660375446081161,-0.9931292533874512
1789658052185626495,1789658052189637375,0.01383460033684969,-0.03086180053651333,0.0904569998383522,0.020949264988303185,-0.22685061395168304,9.841365814208984,0.009348612278699875,-0.0013605012791231275,0.11660375446081161,-0.9931292533874512
1789658052190161885,1789658052202016391,0.011706200428307056,-0.029797600582242012,0.0904569998383522,-0.05746084079146385,-0.16759411990642548,10.010157585144043,0.008131789043545723,-0.0008272018749266863,0.1156688928604126,-0.9932498335838318
1789658052201307174,1789658052205980052,0.011706200428307056,-0.029797600582242012,0.0904569998383522,-0.05746084079146385,-0.16759411990642548,10.010157585144043,0.008131789043545723,-0.0008272018749266863,0.1156688928604126,-0.9932498335838318
1789658052205067500,1789658052209630388,0.011706200428307056,-0.029797600582242012,0.0904569998383522,-0.05746084079146385,-0.16759411990642548,10.010157585144043,0.008131789043545723,-0.0008272018749266863,0.1156688928604126,-0.9932498335838318
1789658052210125383,1789658052222512824,0.010641999542713165,-0.03299019858241081,0.09258539974689484,0.017956512048840523,-0.17717091739177704,9.872490882873535,0.009075124748051167,-0.0006594245205633342,0.11471866816282272,-0.9933520555496216
1789658052222092119,1789658052224167849,0.010641999542713165,-0.03299019858241081,0.09258539974689484,0.017956512048840523,-0.17717091739177704,9.872490882873535,0.009075124748051167,-0.0006594245205633342,0.11471866816282272,-0.9933520555496216
1789658052225442537,1789658052228887650,0.010641999542713165,-0.03299019858241081,0.09258539974689484,0.017956512048840523,-0.17717091739177704,9.872490882873535,0.009075124748051167,-0.0006594245205633342,0.11471866816282272,-0.9933520555496216
1789658052230238590,1789658052243651499,0.011706200428307056,-0.03299019858241081,0.09258539974689484,-0.030526071786880493,-0.1951274424791336,9.90122127532959,0.00876305066049099,-0.0018902420997619629,0.11374678462743759,-0.993465006351471
1789658052243219906,1789658052246352787,0.011706200428307056,-0.03299019858241081,0.09258539974689484,-0.030526071786880493,-0.1951274424791336,9.90122127532959,0.00876305066049099,-0.0018902420997619629,0.11374678462743759,-0.993465006351471
1789658052246412448,1789658052250905009,0.011706200428307056,-0.03299019858241081,0.09258539974689484,-0.030526071786880493,-0.1951274424791336,9.90122127532959,0.00876305066049099,-0.0018902420997619629,0.11374678462743759,-0.993465006351471
1789658052250958282,1789658052264300512,0.011706200428307056,-0.031925998628139496,0.09152120351791382,-0.004189853090792894,-0.10474631935358047,9.906607627868652,0.008370202966034412,-0.0002990433422382921,0.11280768364667892,-0.9935771226882935
1789658052264918459,1789658052268507560,0.011706200428307056,-0.031925998628139496,0.09152120351791382,-0.004189853090792894,-0.10474631935358047,9.906607627868652,0.008370202966034412,-0.0002990433422382921,0.11280768364667892,-0.9935771226882935
1789658052268960910,1789658052273660490,0.011706200428307056,-0.031925998628139496,0.09152120351791382,-0.004189853090792894,-0.10474631935358047,9.906607627868652,0.008370202966034412,-0.0002990433422382921,0.11280768364667892,-0.9935771226882935
1789658052274568190,1789658052284137668,0.010641999542713165,-0.03086180053651333,0.09258539974689484,-0.016759412363171577,-0.22086510062217712,9.86351203918457,0.008608587086200714,0.0008849590085446835,0.11185131967067719,-0.9936829209327698
1789658052284720248,1789658052286883600,0.010641999542713165,-0.03086180053651333,0.09258539974689484,-0.016759412363171577,-0.22086510062217712,9.86351203918457,0.008608587086200714,0.0008849590085446835,0.11185131967067719,-0.9936829209327698
1789658052289889269,1789658052294251397,0.010641999542713165,-0.03086180053651333,0.09258539974689484,-0.016759412363171577,-0.22086510062217712,9.86351203918457,0.008608587086200714,0.0008849590085446835,0.11185131967067719,-0.9936829209327698
1789658052294732504,1789658052305460050,0.012770400382578373,-0.031925998628139496,0.09152120351791382,-0.0933738648891449,-0.18614917993545532,9.829395294189453,0.007301656994968653,0.0004033249570056796,0.11089605838060379,-0.9938007593154907
1789658052306096458,1789658052310177387,0.012770400382578373,-0.031925998628139496,0.09152120351791382,-0.0933738648891449,-0.18614917993545532,9.829395294189453,0.007301656994968653,0.0004033249570056796,0.11089605838060379,-0.9938007593154907
1789658052311603117,1789658052316004204,0.012770400382578373,-0.031925998628139496,0.09152120351791382,-0.0933738648891449,-0.18614917993545532,9.829395294189453,0.007301656994968653,0.0004033249570056796,0.11089605838060379,-0.9938007593154907
1789658052316752140,1789658052326009182,0.009577799588441849,-0.03405439853668213,0.09152120351791382,-0.028730420395731926,-0.17058686912059784,9.90481185913086,0.008316616527736187,0.000960339792072773,0.10993991792201996,-0.9938987493515015
1789658052326813484,1789658052328946431,0.009577799588441849,-0.03405439853668213,0.09152120351791382,-0.028730420395731926,-0.17058686912059784,9.90481185913086,0.008316616527736187,0.000960339792072773,0.10993991792201996,-0.9938987493515015
1789658052330811661,1789658052333519874,0.009577799588441849,-0.03405439853668213,0.09152120351791382,-0.028730420395731926,-0.17058686912059784,9.90481185913086,0.008316616527736187,0.000960339792072773,0.10993991792201996,-0.9938987493515015
1789658052335117126,1789658052348248504,0.010641999542713165,-0.03405439853668213,0.0904569998383522,-0.040701426565647125,-0.193331778049469,9.732429504394531,0.009196631610393524,-0.0004877448664046824,0.10897967964410782,-0.9939969778060913
1789658052347499272,1789658052349064286,0.010641999542713165,-0.03405439853668213,0.0904569998383522,-0.040701426565647125,-0.193331778049469,9.732429504394531,0.009196631610393524,-0.0004877448664046824,0.10897967964410782,-0.9939969778060913
1789658052350100197,1789658052354152092,0.010641999542713165,-0.03405439853668213,0.0904569998383522,-0.040701426565647125,-0.193331778049469,9.732429504394531,0.009196631610393524,-0.0004877448664046824,0.10897967964410782,-0.9939969778060913
1789658052355705422,1789658052368433871,0.012770400382578373,-0.035118598490953445,0.09152120351791382,-0.0035913025494664907,-0.181959331035614,9.804255485534668,0.009469712153077126,0.0004909904091618955,0.10803920030593872,-0.9940970540046692
1789658052369017044,1789658052373229165,0.012770400382578373,-0.035118598490953445,0.09152120351791382,-0.0035913025494664907,-0.181959331035614,9.804255485534668,0.009469712153077126,0.0004909904091618955,0.10803920030593872,-0.9940970540046692
1789658052373889442,1789658052377068855,0.012770400382578373,-0.035118598490953445,0.09152120351791382,-0.0035913025494664907,-0.181959331035614,9.804255485534668,0.009469712153077126,0.0004909904091618955,0.10803920030593872,-0.9940970540046692
1789658052377776332,1789658052389707257,0.012770400382578373,-0.03299019858241081,0.09364960342645645,0.032920271158218384,-0.22744916379451752,9.916184425354004,0.009254156611859798,0.0017029695445671678,0.10709017515182495,-0.9942004680633545
1789658052389907647,1789658052393587703,0.012770400382578373,-0.03299019858241081,0.09364960342645645,0.032920271158218384,-0.22744916379451752,9.916184425354004,0.009254156611859798,0.0017029695445671678,0.10709017515182495,-0.9942004680633545
1789658052396291842,1789658052398126815,0.012770400382578373,-0.03299019858241081,0.09364960342645645,0.032920271158218384,-0.22744916379451752,9.916184425354004,0.009254156611859798,0.0017029695445671678,0.10709017515182495,-0.9942004680633545
1789658052400417138,1789658052410379434,0.012770400382578373,-0.031925998628139496,0.09364960342645645,-0.02753331884741783,-0.12928688526153564,9.875483512878418,0.00823014322668314,0.00021096131240483373,0.10610988736152649,-0.994316041469574
1789658052410165360,1789658052412557693,0.012770400382578373,-0.031925998628139496,0.09364960342645645,-0.02753331884741783,-0.12928688526153564,9.875483512878418,0.00823014322668314,0.00021096131240483373,0.10610988736152649,-0.994316041469574
1789658052415251944,1789658052419071525,0.012770400382578373,-0.031925998628139496,0.09364960342645645,-0.02753331884741783,-0.12928688526153564,9.875483512878418,0.00823014322668314,0.00021096131240483373,0.10610988736152649,-0.994316041469574
1789658052420085827,1789658052430899792,0.010641999542713165,-0.031925998628139496,0.09258539974689484,-0.016759412363171577,-0.18315643072128296,9.952695846557617,0.008877568878233433,0.0010857273591682315,0.10514574497938156,-0.994412362575531
1789658052430182649,1789658052433346305,0.010641999542713165,-0.031925998628139496,0.09258539974689484,-0.016759412363171577,-0.18315643072128296,9.952695846557617,0.008877568878233433,0.0010857273591682315,0.10514574497938156,-0.994412362575531
1789658052435121042,1789658052437532984,0.010641999542713165,-0.031925998628139496,0.09258539974689484,-0.016759412363171577,-0.18315643072128296,9.952695846557617,0.008877568878233433,0.0010857273591682315,0.10514574497938156,-0.994412362575531
1789658052440180906,1789658052452164215,0.011706200428307056,-0.03405439853668213,0.09152120351791382,0.0011971008498221636,-0.18076223134994507,9.880271911621094,0.009296579286456108,-0.00033220535260625184,0.10417386144399643,-0.9945113062858582
1789658052452047151,1789658052454020612,0.011706200428307056,-0.03405439853668213,0.09152120351791382,0.0011971008498221636,-0.18076223134994507,9.880271911621094,0.009296579286456108,-0.00033220535260625184,0.10417386144399643,-0.9945113062858582
1789658052455251470,1789658052457845600,0.011706200428307056,-0.03405439853668213,0.09152120351791382,0.0011971008498221636,-0.18076223134994507,9.880271911621094,0.009296579286456108,-0.00033220535260625184,0.10417386144399643,-0.9945113062858582
1789658052460099944,1789658052472793119,0.012770400382578373,-0.031925998628139496,0.09152120351791382,-0.021547814831137657,-0.17956513166427612,9.840168952941895,0.00939502939581871,0.000677970761898905,0.10323109477758408,-0.9946085214614868
1789658052472367155,1789658052476114483,0.012770400382578373,-0.031925998628139496,0.09152120351791382,-0.021547814831137657,-0.17956513166427612,9.840168952941895,0.00939502939581871,0.000677970761898905,0.10323109477758408,-0.9946085214614868
1789658052476068913,1789658052480596637,0.012770400382578373,-0.031925998628139496,0.09152120351791382,-0.021547814831137657,-0.17956513166427612,9.840168952941895,0.00939502939581871,0.000677970761898905,0.10323109477758408,-0.9946085214614868
1789658052480068645,1789658052493491424,0.011706200428307056,-0.03086180053651333,0.09152120351791382,0.05147533491253853,-0.208295539021492,9.825204849243164,0.00931265763938427,0.0001756223209667951,0.1022733524441719,-0.9947084188461304
1789658052495014775,1789658052498006038,0.011706200428307056,-0.03086180053651333,0.09152120351791382,0.05147533491253853,-0.208295539021492,9.825204849243164,0.00931265763938427,0.0001756223209667951,0.1022733524441719,-0.9947084188461304
1789658052500128412,1789658052502312633,0.011706200428307056,-0.03086180053651333,0.09152120351791382,0.05147533491253853,-0.208295539021492,9.825204849243164,0.00931265763938427,0.0001756223209667951,0.1022733524441719,-0.9947084188461304
1789658052505196553,1789658052514889854,0.012770400382578373,-0.031925998628139496,0.09258539974689484,-0.013168109580874443,-0.19692309200763702,9.874884605407715,0.008622957393527031,-0.0006947936490178108,0.10130228847265244,-0.9948137402534485
1789658052514373750,1789658052516029257,0.012770400382578373,-0.031925998628139496,0.09258539974689484,-0.013168109580874443,-0.19692309200763702,9.874884605407715,0.008622957393527031,-0.0006947936490178108,0.10130228847265244,-0.9948137402534485
1789658052516911459,1789658052520095020,0.012770400382578373,-0.031925998628139496,0.09258539974689484,-0.013168109580874443,-0.19692309200763702,9.874884605407715,0.008622957393527031,-0.0006947936490178108,0.10130228847265244,-0.9948137402534485
1789658052520652861,1789658052522932852,0.012770400382578373,-0.031925998628139496,0.09258539974689484,-0.013168109580874443,-0.19692309200763702,9.874884605407715,0.008622957393527031,-0.0006947936490178108,0.10130228847265244,-0.9948137402534485
1789658052525071150,1789658052535237152,0.012770400382578373,-0.031925998628139496,0.09152120351791382,0.0454898327589035,-0.15322890877723694,9.991601943969727,0.007987725548446178,0.0014722824562340975,0.10035517066717148,-0.9949141144752502
1789658052535314719,1789658052538434416,0.012770400382578373,-0.031925998628139496,0.09152120351791382,0.0454898327589035,-0.15322890877723694,9.991601943969727,0.007987725548446178,0.0014722824562340975,0.10035517066717148,-0.9949141144752502
1789658052540125771,1789658052542639501,0.012770400382578373,-0.031925998628139496,0.09152120351791382,0.0454898327589035,-0.15322890877723694,9.991601943969727,0.007987725548446178,0.0014722824562340975,0.10035517066717148,-0.9949141144752502
1789658052545146398,1789658052556481947,0.012770400382578373,-0.03405439853668213,0.0904569998383522,0.030526071786880493,-0.2106897532939911,9.913191795349121,0.009467067196965218,0.0006794692017138004,0.09938684105873108,-0.9949992299079895
1789658052556130422,1789658052557905437,0.012770400382578373,-0.03405439853668213,0.0904569998383522,0.030526071786880493,-0.2106897532939911,9.913191795349121,0.009467067196965218,0.0006794692017138004,0.09938684105873108,-0.9949992299079895
1789658052560178057,1789658052564432805,0.012770400382578373,-0.03405439853668213,0.0904569998383522,0.030526071786880493,-0.2106897532939911,9.913191795349121,0.009467067196965218,0.0006794692017138004,0.09938684105873108,-0.9949992299079895
1789658052565259475,1789658052576205076,0.012770400382578373,-0.031925998628139496,0.09152120351791382,-0.010175356641411781,-0.18614917993545532,9.917980194091797,0.009036682546138763,-0.000851923949085176,0.09841962158679962,-0.9950991868972778
1789658052576292143,1789658052579392656,0.012770400382578373,-0.031925998628139496,0.09152120351791382,-0.010175356641411781,-0.18614917993545532,9.917980194091797,0.009036682546138763,-0.000851923949085176,0.09841962158679962,-0.9950991868972778
1789658052580655437,1789658052582939297,0.012770400382578373,-0.031925998628139496,0.09152120351791382,-0.010175356641411781,-0.18614917993545532,9.917980194091797,0.009036682546138763,-0.000851923949085176,0.09841962158679962,-0.9950991868972778
1789658052586064234,1789658052598246896,0.012770400382578373,-0.03086180053651333,0.0904569998383522,0.04848258197307587,-0.19153612852096558,9.876081466674805,0.01016207318753004,0.0003117776941508055,0.09747277200222015,-0.9951819181442261
1789658052598794720,1789658052602448315,0.012770400382578373,-0.03086180053651333,0.0904569998383522,0.04848258197307587,-0.19153612852096558,9.876081466674805,0.01016207318753004,0.0003117776941508055,0.09747277200222015,-0.9951819181442261
1789658052603141422,1789658052607954511,0.012770400382578373,-0.03086180053651333,0.0904569998383522,0.04848258197307587,-0.19153612852096558,9.876081466674805,0.01016207318753004,0.0003117776941508055,0.09747277200222015,-0.9951819181442261
1789658052608618288,1789658052618295294,0.011706200428307056,-0.03086180053651333,0.0904569998383522,0.04429272934794426,-0.17298106849193573,9.965864181518555,0.009125973097980022,0.00017286775982938707,0.0965254008769989,-0.995284378528595
1789658052618955275,1789658052623009817,0.011706200428307056,-0.03086180053651333,0.0904569998383522,0.04429272934794426,-0.17298106849193573,9.965864181518555,0.009125973097980022,0.00017286775982938707,0.0965254008769989,-0.995284378528595
1789658052623874965,1789658052627105115,0.011706200428307056,-0.03086180053651333,0.0904569998383522,0.04429272934794426,-0.17298106849193573,9.965864181518555,0.009125973097980022,0.00017286775982938707,0.0965254008769989,-0.995284378528595
1789658052627760244,1789658052640002587,0.011706200428307056,-0.03086180053651333,0.09364960342645645,0.041299980133771896,-0.1693897694349289,9.957484245300293,0.008565125986933708,0.0013483521761372685,0.09556695073843002,-0.9953809380531311
1789658052640121151,1789658052644150380,0.011706200428307056,-0.03086180053651333,0.09364960342645645,0.041299980133771896,-0.1693897694349289,9.957484245300293,0.008565125986933708,0.0013483521761372685,0.09556695073843002,-0.9953809380531311
1789658052645403477,1789658052648143447,0.011706200428307056,-0.03086180053651333,0.09364960342645645,0.041299980133771896,-0.1693897694349289,9.957484245300293,0.008565125986933708,0.0013483521761372685,0.09556695073843002,-0.9953809380531311
1789658052650001177,1789658052660211822,0.012770400382578373,-0.03299019858241081,0.09258539974689484,0.05985504016280174,-0.16220715641975403,9.879075050354004,0.008856542408466339,0.0010845293290913105,0.09459669142961502,-0.9954713582992554
1789658052660162345,1789658052661882624,0.012770400382578373,-0.03299019858241081,0.09258539974689484,0.05985504016280174,-0.16220715641975403,9.879075050354004,0.008856542408466339,0.0010845293290913105,0.09459669142961502,-0.9954713582992554
1789658052665158807,1789658052668931725,0.012770400382578373,-0.03299019858241081,0.09258539974689484,0.05985504016280174,-0.16220715641975403,9.879075050354004,0.008856542408466339,0.0010845293290913105,0.09459669142961502,-0.9954713582992554
1789658052670197580,1789658052681113906,0.014898800291121006,-0.031925998628139496,0.09364960342645645,-0.011971008032560349,-0.18914192914962769,9.967659950256348,0.008960066363215446,-0.0005887634470127523,0.0935993641614914,-0.9955650568008423
1789658052681247154,1789658052683004523,0.014898800291121006,-0.031925998628139496,0.09364960342645645,-0.011971008032560349,-0.18914192914962769,9.967659950256348,0.008960066363215446,-0.0005887634470127523,0.0935993641614914,-0.9955650568008423
1789658052685596727,1789658052688443817,0.014898800291121006,-0.031925998628139496,0.09364960342645645,-0.011971008032560349,-0.18914192914962769,9.967659950256348,0.008960066363215446,-0.0005887634470127523,0.0935993641614914,-0.9955650568008423
1789658052690055846,1789658052702687451,0.012770400382578373,-0.03299019858241081,0.09152120351791382,0.03411737456917763,-0.17657236754894257,9.804255485534668,0.00910307839512825,0.0010075080208480358,0.09265052527189255,-0.9956523180007935
1789658052702306262,1789658052705152074,0.012770400382578373,-0.03299019858241081,0.09152120351791382,0.03411737456917763,-0.17657236754894257,9.804255485534668,0.00910307839512825,0.0010075080208480358,0.09265052527189255,-0.9956523180007935
1789658052705130724,1789658052709309423,0.012770400382578373,-0.03299019858241081,0.09152120351791382,0.03411737456917763,-0.17657236754894257,9.804255485534668,0.00910307839512825,0.0010075080208480358,0.09265052527189255,-0.9956523180007935
1789658052710922692,1789658052722018096,0.011706200428307056,-0.031925998628139496,0.09152120351791382,-0.004788403399288654,-0.17956513166427612,10.001178741455078,0.008658108301460743,-0.0005041885888203979,0.09167763590812683,-0.9957466125488281
1789658052722062907,1789658052725017265,0.011706200428307056,-0.031925998628139496,0.09152120351791382,-0.004788403399288654,-0.17956513166427612,10.001178741455078,0.008658108301460743,-0.0005041885888203979,0.09167763590812683,-0.9957466125488281
1789658052726037215,1789658052729180539,0.011706200428307056,-0.031925998628139496,0.09152120351791382,-0.004788403399288654,-0.17956513166427612,10.001178741455078,0.008658108301460743,-0.0005041885888203979,0.09167763590812683,-0.9957466125488281
1789658052730930297,1789658052743687632,0.012770400382578373,-0.031925998628139496,0.09364960342645645,-0.0293289702385664,-0.16519992053508759,9.818620681762695,0.00871252454817295,-0.0017673535039648414,0.09068851172924042,-0.9958353042602539
1789658052743145623,1789658052747457792,0.012770400382578373,-0.031925998628139496,0.09364960342645645,-0.0293289702385664,-0.16519992053508759,9.818620681762695,0.00871252454817295,-0.0017673535039648414,0.09068851172924042,-0.9958353042602539
1789658052747892366,1789658052750011981,0.012770400382578373,-0.031925998628139496,0.09364960342645645,-0.0293289702385664,-0.16519992053508759,9.818620681762695,0.00871252454817295,-0.0017673535039648414,0.09068851172924042,-0.9958353042602539
1789658052750800858,1789658052753003688,0.012770400382578373,-0.031925998628139496,0.09364960342645645,-0.0293289702385664,-0.16519992053508759,9.818620681762695,0.00871252454817295,-0.0017673535039648414,0.09068851172924042,-0.9958353042602539
1789658052755042718,1789658052764683097,0.010641999542713165,-0.029797600582242012,0.09364960342645645,0.05267243832349777,-0.1867477297782898,9.815628051757812,0.008135566487908363,-0.0019719537813216448,0.08970414102077484,-0.995928943157196
1789658052764238506,1789658052767735614,0.010641999542713165,-0.029797600582242012,0.09364960342645645,0.05267243832349777,-0.1867477297782898,9.815628051757812,0.008135566487908363,-0.0019719537813216448,0.08970414102077484,-0.995928943157196
1789658052768136302,1789658052772058282,0.010641999542713165,-0.029797600582242012,0.09364960342645645,0.05267243832349777,-0.1867477297782898,9.815628051757812,0.008135566487908363,-0.0019719537813216448,0.08970414102077484,-0.995928943157196
1789658052772235137,1789658052785003657,0.011706200428307056,-0.029797600582242012,0.09258539974689484,-0.026336219161748886,-0.15682020783424377,9.808445930480957,0.007806434761732817,-0.0023305269423872232,0.08873385936021805,-0.9960176944732666
1789658052785895488,1789658052790037504,0.011706200428307056,-0.029797600582242012,0.09258539974689484,-0.026336219161748886,-0.15682020783424377,9.808445930480957,0.007806434761732817,-0.0023305269423872232,0.08873385936021805,-0.9960176944732666
1789658052792022779,1789658052793908562,0.011706200428307056,-0.029797600582242012,0.09258539974689484,-0.026336219161748886,-0.15682020783424377,9.808445930480957,0.007806434761732817,-0.0023305269423872232,0.08873385936021805,-0.9960176944732666
1789658052794946622,1789658052806290874,0.012770400382578373,-0.029797600582242012,0.09258539974689484,0.002992752008140087,-0.16998831927776337,9.792284965515137,0.008637290447950363,-0.0005561956786550581,0.08779429644346237,-0.9960967302322388
1789658052807059105,1789658052811246451,0.012770400382578373,-0.029797600582242012,0.09258539974689484,0.002992752008140087,-0.16998831927776337,9.792284965515137,0.008637290447950363,-0.0005561956786550581,0.08779429644346237,-0.9960967302322388
1789658052811934633,1789658052815933495,0.012770400382578373,-0.029797600582242012,0.09258539974689484,0.002992752008140087,-0.16998831927776337,9.792284965515137,0.008637290447950363,-0.0005561956786550581,0.08779429644346237,-0.9960967302322388
1789658052816411417,1789658052828348230,0.010641999542713165,-0.03086180053651333,0.09258539974689484,-0.05446808785200119,-0.18315643072128296,9.843161582946777,0.008703785017132759,-0.0022947280667722225,0.08681594580411911,-0.9961793422698975
1789658052829260504,1789658052832448676,0.010641999542713165,-0.03086180053651333,0.09258539974689484,-0.05446808785200119,-0.18315643072128296,9.843161582946777,0.008703785017132759,-0.0022947280667722225,0.08681594580411911,-0.9961793422698975
1789658052833593504,1789658052840238510,0.010641999542713165,-0.03086180053651333,0.09258539974689484,-0.05446808785200119,-0.18315643072128296,9.843161582946777,0.008703785017132759,-0.0022947280667722225,0.08681594580411911,-0.9961793422698975
1789658052838072047,1789658052848248900,0.011706200428307056,-0.029797600582242012,0.0904569998383522,-0.02992752008140087,-0.1562216579914093,9.893440246582031,0.008435813710093498,-0.0011403777170926332,0.0858738124370575,-0.9962652921676636
1789658052849279978,1789658052852437264,0.011706200428307056,-0.029797600582242012,0.0904569998383522,-0.02992752008140087,-0.1562216579914093,9.893440246582031,0.008435813710093498,-0.0011403777170926332,0.0858738124370575,-0.9962652921676636
1789658052852661652,1789658052855298445,0.011706200428307056,-0.029797600582242012,0.0904569998383522,-0.02992752008140087,-0.1562216579914093,9.893440246582031,0.008435813710093498,-0.0011403777170926332,0.0858738124370575,-0.9962652921676636
1789658052855630195,1789658052869523378,0.012770400382578373,-0.03086180053651333,0.09152120351791382,0.06763619929552078,-0.21787235140800476,9.749787330627441,0.010038822889328003,-2.457915798004251e-05,0.08492062985897064,-0.9963328242301941
1789658052870630301,1789658052873545349,0.012770400382578373,-0.03086180053651333,0.09152120351791382,0.06763619929552078,-0.21787235140800476,9.749787330627441,0.010038822889328003,-2.457915798004251e-05,0.08492062985897064,-0.9963328242301941
1789658052875579360,1789658052878777920,0.012770400382578373,-0.03086180053651333,0.09152120351791382,0.06763619929552078,-0.21787235140800476,9.749787330627441,0.010038822889328003,-2.457915798004251e-05,0.08492062985897064,-0.9963328242301941
1789658052880083734,1789658052889233100,0.011706200428307056,-0.03299019858241081,0.0904569998383522,-0.05027823522686958,-0.1825578808784485,9.900023460388184,0.00868356041610241,4.5353957830229774e-05,0.08397383242845535,-0.9964258074760437
1789658052891431246,1789658052894043874,0.011706200428307056,-0.03299019858241081,0.0904569998383522,-0.05027823522686958,-0.1825578808784485,9.900023460388184,0.00868356041610241,4.5353957830229774e-05,0.08397383242845535,-0.9964258074760437
1789658052895656366,1789658052900225161,0.011706200428307056,-0.03299019858241081,0.0904569998383522,-0.05027823522686958,-0.1825578808784485,9.900023460388184,0.00868356041610241,4.5353957830229774e-05,0.08397383242845535,-0.9964258074760437
1789658052900304895,1789658052910190069,0.011706200428307056,-0.03405439853668213,0.09152120351791382,0.03711012750864029,-0.1628057062625885,9.757569313049316,0.008983264677226543,0.001299953437410295,0.08303391188383102,-0.996501088142395
1789658052910929505,1789658052917935518,0.011706200428307056,-0.03405439853668213,0.09152120351791382,0.03711012750864029,-0.1628057062625885,9.757569313049316,0.008983264677226543,0.001299953437410295,0.08303391188383102,-0.996501088142395
1789658052914900944,1789658052919099085,0.011706200428307056,-0.03405439853668213,0.09152120351791382,0.03711012750864029,-0.1628057062625885,9.757569313049316,0.008983264677226543,0.001299953437410295,0.08303391188383102,-0.996501088142395
1789658052920650656,1789658052931133501,0.012770400382578373,-0.03299019858241081,0.09152120351791382,-0.04728548228740692,-0.2059013396501541,9.988609313964844,0.007873494178056717,0.0014963132562115788,0.08207797259092331,-0.9965893626213074
1789658052931212883,1789658052934388463,0.012770400382578373,-0.03299019858241081,0.09152120351791382,-0.04728548228740692,-0.2059013396501541,9.988609313964844,0.007873494178056717,0.0014963132562115788,0.08207797259092331,-0.9965893626213074
1789658052935125493,1789658052939083062,0.012770400382578373,-0.03299019858241081,0.09152120351791382,-0.04728548228740692,-0.2059013396501541,9.988609313964844,0.007873494178056717,0.0014963132562115788,0.08207797259092331,-0.9965893626213074
1789658052940536105,1789658052952150538,0.011706200428307056,-0.03299019858241081,0.09152120351791382,-0.058059390634298325,-0.152031809091568,9.824606895446777,0.00654457975178957,0.0009306533611379564,0.08112812042236328,-0.9966773986816406
1789658052952264380,1789658052954312983,0.011706200428307056,-0.03299019858241081,0.09152120351791382,-0.058059390634298325,-0.152031809091568,9.824606895446777,0.00654457975178957,0.0009306533611379564,0.08112812042236328,-0.9966773986816406
1789658052955644239,1789658052958967863,0.011706200428307056,-0.03299019858241081,0.09152120351791382,-0.058059390634298325,-0.152031809091568,9.824606895446777,0.00654457975178957,0.0009306533611379564,0.08112812042236328,-0.9966773986816406
1789658052960023865,1789658052973428460,0.012770400382578373,-0.03086180053651333,0.09152120351791382,0.03232172131538391,-0.18614917993545532,9.82999324798584,0.00851766299456358,0.0010137875797227025,0.08017369359731674,-0.9967397451400757
1789658052973336227,1789658052976999488,0.012770400382578373,-0.03086180053651333,0.09152120351791382,0.03232172131538391,-0.18614917993545532,9.82999324798584,0.00851766299456358,0.0010137875797227025,0.08017369359731674,-0.9967397451400757
1789658052977042966,1789658052980782961,0.012770400382578373,-0.03086180053651333,0.09152120351791382,0.03232172131538391,-0.18614917993545532,9.82999324798584,0.00851766299456358,0.0010137875797227025,0.08017369359731674,-0.9967397451400757
1789658052981555154,1789658052994161706,0.011706200428307056,-0.031925998628139496,0.09152120351791382,0.041299980133771896,-0.18914192914962769,9.786299705505371,0.009011704474687576,0.0004998203366994858,0.07921989262104034,-0.9968119263648987
1789658052996392423,1789658052998673136,0.011706200428307056,-0.031925998628139496,0.09152120351791382,0.041299980133771896,-0.18914192914962769,9.786299705505371,0.009011704474687576,0.0004998203366994858,0.07921989262104034,-0.9968119263648987
1789658053000931295,1789658053004273879,0.011706200428307056,-0.031925998628139496,0.09152120351791382,0.041299980133771896,-0.18914192914962769,9.786299705505371,0.009011704474687576,0.0004998203366994858,0.07921989262104034,-0.9968119263648987
1789658053005077903,1789658053015759048,0.012770400382578373,-0.03086180053651333,0.09258539974689484,0.047884032130241394,-0.12928688526153564,10.014347076416016,0.009578990750014782,0.001342347706668079,0.07826327532529831,-0.9968814253807068
1789658053015358823,1789658053017384798,0.012770400382578373,-0.03086180053651333,0.09258539974689484,0.047884032130241394,-0.12928688526153564,10.014347076416016,0.009578990750014782,0.001342347706668079,0.07826327532529831,-0.9968814253807068
1789658053020042053,1789658053024105170,0.012770400382578373,-0.03086180053651333,0.09258539974689484,0.047884032130241394,-0.12928688526153564,10.014347076416016,0.009578990750014782,0.001342347706668079,0.07826327532529831,-0.9968814253807068
1789658053025269867,1789658053035435000,0.012770400382578373,-0.031925998628139496,0.09152120351791382,0.040701426565647125,-0.1777694672346115,9.871891975402832,0.009021553210914135,0.0010716523975133896,0.07730572670698166,-0.9969617128372192
1789658053035163597,1789658053038218485,0.012770400382578373,-0.031925998628139496,0.09152120351791382,0.040701426565647125,-0.1777694672346115,9.871891975402832,0.009021553210914135,0.0010716523975133896,0.07730572670698166,-0.9969617128372192
1789658053040032293,1789658053042136077,0.012770400382578373,-0.031925998628139496,0.09152120351791382,0.040701426565647125,-0.1777694672346115,9.871891975402832,0.009021553210914135,0.0010716523975133896,0.07730572670698166,-0.9969617128372192
1789658053045103046,1789658053057214495,0.011706200428307056,-0.03299019858241081,0.09152120351791382,0.005386953707784414,-0.18974047899246216,10.050259590148926,0.008548351936042309,0.00010465151717653498,0.07634279131889343,-0.9970405697822571
1789658053057344280,1789658053061305517,0.011706200428307056,-0.03299019858241081,0.09152120351791382,0.005386953707784414,-0.18974047899246216,10.050259590148926,0.008548351936042309,0.00010465151717653498,0.07634279131889343,-0.9970405697822571
1789658053062218735,1789658053066779216,0.011706200428307056,-0.03299019858241081,0.09152120351791382,0.005386953707784414,-0.18974047899246216,10.050259590148926,0.008548351936042309,0.00010465151717653498,0.07634279131889343,-0.9970405697822571
1789658053067152333,1789658053077246898,0.011706200428307056,-0.031925998628139496,0.09152120351791382,0.05686229094862938,-0.17058686912059784,9.865906715393066,0.00894125271588564,0.002109263790771365,0.07540501654148102,-0.9971064329147339
1789658053077946320,1789658053081279073,0.011706200428307056,-0.031925998628139496,0.09152120351791382,0.05686229094862938,-0.17058686912059784,9.865906715393066,0.00894125271588564,0.002109263790771365,0.07540501654148102,-0.9971064329147339
1789658053081397563,1789658053084111757,0.011706200428307056,-0.031925998628139496,0.09152120351791382,0.05686229094862938,-0.17058686912059784,9.865906715393066,0.00894125271588564,0.002109263790771365,0.07540501654148102,-0.9971064329147339
1789658053087000437,1789658053098361357,0.011706200428307056,-0.03299019858241081,0.09152120351791382,0.0,-0.18794482946395874,9.965864181518555,0.009013038128614426,0.00038862720248289406,0.07442635297775269,-0.9971813559532166
1789658053099434543,1789658053103277290,0.011706200428307056,-0.03299019858241081,0.09152120351791382,0.0,-0.18794482946395874,9.965864181518555,0.009013038128614426,0.00038862720248289406,0.07442635297775269,-0.9971813559532166
1789658053104484298,1789658053107113259,0.011706200428307056,-0.03299019858241081,0.09152120351791382,0.0,-0.18794482946395874,9.965864181518555,0.009013038128614426,0.00038862720248289406,0.07442635297775269,-0.9971813559532166
1789658053107990240,1789658053119622840,0.011706200428307056,-0.03299019858241081,0.09152120351791382,0.014365210197865963,-0.13168108463287354,9.945513725280762,0.009442220441997051,0.0012460078578442335,0.07347014546394348,-0.997247576713562
1789658053119981884,1789658053125277099,0.011706200428307056,-0.03299019858241081,0.09152120351791382,0.014365210197865963,-0.13168108463287354,9.945513725280762,0.009442220441997051,0.0012460078578442335,0.07347014546394348,-0.997247576713562
1789658053125571778,1789658053128923621,0.011706200428307056,-0.03299019858241081,0.09152120351791382,0.014365210197865963,-0.13168108463287354,9.945513725280762,0.009442220441997051,0.0012460078578442335,0.07347014546394348,-0.997247576713562
1789658053129932276,1789658053141216499,0.01383460033684969,-0.03405439853668213,0.0904569998383522,0.08738835901021957,-0.20290859043598175,9.906009674072266,0.010301674716174603,0.0012185125378891826,0.07250608503818512,-0.9973097443580627
1789658053140297929,1789658053141940863,0.01383460033684969,-0.03405439853668213,0.0904569998383522,0.08738835901021957,-0.20290859043598175,9.906009674072266,0.010301674716174603,0.0012185125378891826,0.07250608503818512,-0.9973097443580627
1789658053145125258,1789658053147080481,0.01383460033684969,-0.03405439853668213,0.0904569998383522,0.08738835901021957,-0.20290859043598175,9.906009674072266,0.010301674716174603,0.0012185125378891826,0.07250608503818512,-0.9973097443580627
1789658053150026322,1789658053161413110,0.01383460033684969,-0.03405439853668213,0.0904569998383522,0.0454898327589035,-0.18136078119277954,9.955689430236816,0.009155969135463238,0.0015576573787257075,0.0715581476688385,-0.9973888397216797
1789658053161315896,1789658053163171849,0.01383460033684969,-0.03405439853668213,0.0904569998383522,0.0454898327589035,-0.18136078119277954,9.955689430236816,0.009155969135463238,0.0015576573787257075,0.0715581476688385,-0.9973888397216797
1789658053165329591,1789658053168691508,0.01383460033684969,-0.03405439853668213,0.0904569998383522,0.0454898327589035,-0.18136078119277954,9.955689430236816,0.009155969135463238,0.0015576573787257075,0.0715581476688385,-0.9973888397216797
1789658053170081075,1789658053182081607,0.012770400382578373,-0.031925998628139496,0.09258539974689484,0.05925649031996727,-0.17058686912059784,9.897629737854004,0.008681834675371647,0.0012707766145467758,0.07059437036514282,-0.9974622130393982
1789658053182235131,1789658053184035885,0.012770400382578373,-0.031925998628139496,0.09258539974689484,0.05925649031996727,-0.17058686912059784,9.897629737854004,0.008681834675371647,0.0012707766145467758,0.07059437036514282,-0.9974622130393982
1789658053185936797,1789658053188978834,0.012770400382578373,-0.031925998628139496,0.09258539974689484,0.05925649031996727,-0.17058686912059784,9.897629737854004,0.008681834675371647,0.0012707766145467758,0.07059437036514282,-0.9974622130393982
1789658053190402620,1789658053203041487,0.01383460033684969,-0.029797600582242012,0.09152120351791382,0.03950432687997818,-0.2106897532939911,9.844358444213867,0.00986223854124546,0.0007678051479160786,0.06961770355701447,-0.997520387172699
1789658053202299420,1789658053206653383,0.01383460033684969,-0.029797600582242012,0.09152120351791382,0.03950432687997818,-0.2106897532939911,9.844358444213867,0.00986223854124546,0.0007678051479160786,0.06961770355701447,-0.997520387172699
1789658053207042072,1789658053209766617,0.01383460033684969,-0.029797600582242012,0.09152120351791382,0.03950432687997818,-0.2106897532939911,9.844358444213867,0.00986223854124546,0.0007678051479160786,0.06961770355701447,-0.997520387172699
1789658053209976229,1789658053213100537,0.01383460033684969,-0.029797600582242012,0.09152120351791382,0.03950432687997818,-0.2106897532939911,9.844358444213867,0.00986223854124546,0.0007678051479160786,0.06961770355701447,-0.997520387172699
1789658053215068258,1789658053223748888,0.011706200428307056,-0.03086180053651333,0.09152120351791382,-0.03232172131538391,-0.15682020783424377,9.995193481445312,0.009132524020969868,-0.0007568109431304038,0.06864577531814575,-0.9975947737693787
1789658053223241487,1789658053226032952,0.011706200428307056,-0.03086180053651333,0.09152120351791382,-0.03232172131538391,-0.15682020783424377,9.995193481445312,0.009132524020969868,-0.0007568109431304038,0.06864577531814575,-0.9975947737693787
1789658053226797035,1789658053230545642,0.011706200428307056,-0.03086180053651333,0.09152120351791382,-0.03232172131538391,-0.15682020783424377,9.995193481445312,0.009132524020969868,-0.0007568109431304038,0.06864577531814575,-0.9975947737693787
1789658053231127796,1789658053244519876,0.011706200428307056,-0.03086180053651333,0.09258539974689484,0.02693476900458336,-0.17896656692028046,9.77253246307373,0.009970653802156448,-0.00016842344484757632,0.06767898052930832,-0.9976529479026794
1789658053248112644,1789658053251065003,0.011706200428307056,-0.03086180053651333,0.09258539974689484,0.02693476900458336,-0.17896656692028046,9.77253246307373,0.009970653802156448,-0.00016842344484757632,0.06767898052930832,-0.9976529479026794
1789658053252458662,1789658053265166227,0.012770400382578373,-0.029797600582242012,0.09152120351791382,0.02992752008140087,-0.17417816817760468,10.02691650390625,0.008650705218315125,0.0003294448833912611,0.06672874838113785,-0.9977293014526367
1789658053266060447,1789658053270380134,0.012770400382578373,-0.029797600582242012,0.09152120351791382,0.02992752008140087,-0.17417816817760468,10.02691650390625,0.008650705218315125,0.0003294448833912611,0.06672874838113785,-0.9977293014526367
1789658053270979935,1789658053274128740,0.012770400382578373,-0.029797600582242012,0.09152120351791382,0.02992752008140087,-0.17417816817760468,10.02691650390625,0.008650705218315125,0.0003294448833912611,0.06672874838113785,-0.9977293014526367
1789658053275505364,1789658053287091561,0.011706200428307056,-0.03086180053651333,0.09258539974689484,-0.0454898327589035,-0.14245499670505524,10.016142845153809,0.00871998444199562,0.0013310159556567669,0.06578622758388519,-0.9977904558181763
1789658053287286118,1789658053290162188,0.011706200428307056,-0.03086180053651333,0.09258539974689484,-0.0454898327589035,-0.14245499670505524,10.016142845153809,0.00871998444199562,0.0013310159556567669,0.06578622758388519,-0.9977904558181763
1789658053292975189,1789658053294959927,0.011706200428307056,-0.03086180053651333,0.09258539974689484,-0.0454898327589035,-0.14245499670505524,10.016142845153809,0.00871998444199562,0.0013310159556567669,0.06578622758388519,-0.9977904558181763
1789658053295890033,1789658053307370295,0.01383460033684969,-0.03086180053651333,0.09364960342645645,0.020949264988303185,-0.16639702022075653,9.865906715393066,0.008633589372038841,0.0008370417635887861,0.06479650735855103,-0.9978564381599426
1789658053308106880,1789658053311214375,0.01383460033684969,-0.03086180053651333,0.09364960342645645,0.020949264988303185,-0.16639702022075653,9.865906715393066,0.008633589372038841,0.0008370417635887861,0.06479650735855103,-0.9978564381599426
1789658053312445362,1789658053315990708,0.01383460033684969,-0.03086180053651333,0.09364960342645645,0.020949264988303185,-0.16639702022075653,9.865906715393066,0.008633589372038841,0.0008370417635887861,0.06479650735855103,-0.9978564381599426
1789658053316820693,1789658053328245182,0.012770400382578373,-0.03299019858241081,0.09152120351791382,-0.06823474913835526,-0.15083470940589905,9.82999324798584,0.008024624548852444,-0.0008602411835454404,0.06381604820489883,-0.9979247450828552
1789658053329106534,1789658053332304150,0.012770400382578373,-0.03299019858241081,0.09152120351791382,-0.06823474913835526,-0.15083470940589905,9.82999324798584,0.008024624548852444,-0.0008602411835454404,0.06381604820489883,-0.9979247450828552
1789658053333230127,1789658053337213880,0.012770400382578373,-0.03299019858241081,0.09152120351791382,-0.06823474913835526,-0.15083470940589905,9.82999324798584,0.008024624548852444,-0.0008602411835454404,0.06381604820489883,-0.9979247450828552
1789658053338187964,1789658053348101100,0.010641999542713165,-0.03405439853668213,0.0904569998383522,-0.012569558806717396,-0.19153612852096558,9.90361499786377,0.009205197915434837,-0.00017661730817053467,0.06287101656198502,-0.9979748725891113
1789658053348969674,1789658053350933858,0.010641999542713165,-0.03405439853668213,0.0904569998383522,-0.012569558806717396,-0.19153612852096558,9.90361499786377,0.009205197915434837,-0.00017661730817053467,0.06287101656198502,-0.9979748725891113
1789658053351701163,1789658053355658641,0.010641999542713165,-0.03405439853668213,0.0904569998383522,-0.012569558806717396,-0.19153612852096558,9.90361499786377,0.009205197915434837,-0.00017661730817053467,0.06287101656198502,-0.9979748725891113
1789658053355940431,1789658053360126611,0.010641999542713165,-0.03405439853668213,0.0904569998383522,-0.012569558806717396,-0.19153612852096558,9.90361499786377,0.009205197915434837,-0.00017661730817053467,0.06287101656198502,-0.9979748725891113
1789658053359934165,1789658053370407864,0.011706200428307056,-0.03086180053651333,0.09258539974689484,-0.04369417950510979,-0.18614917993545532,9.854534149169922,0.0081888847053051,-0.0009840668644756079,0.06189803034067154,-0.9980440735816956
1789658053369933331,1789658053373021419,0.011706200428307056,-0.03086180053651333,0.09258539974689484,-0.04369417950510979,-0.18614917993545532,9.854534149169922,0.0081888847053051,-0.0009840668644756079,0.06189803034067154,-0.9980440735816956
1789658053375025711,1789658053379629300,0.011706200428307056,-0.03086180053651333,0.09258539974689484,-0.04369417950510979,-0.18614917993545532,9.854534149169922,0.0081888847053051,-0.0009840668644756079,0.06189803034067154,-0.9980440735816956
1789658053380794794,1789658053390525612,0.012770400382578373,-0.031925998628139496,0.09152120351791382,-0.02992752008140087,-0.1646013706922531,9.959280014038086,0.008563799783587456,-8.131746290018782e-05,0.060947321355342865,-0.9980999231338501
1789658053392417821,1789658053395024395,0.012770400382578373,-0.031925998628139496,0.09152120351791382,-0.02992752008140087,-0.1646013706922531,9.959280014038086,0.008563799783587456,-8.131746290018782e-05,0.060947321355342865,-0.9980999231338501
1789658053395796311,1789658053400472671,0.012770400382578373,-0.031925998628139496,0.09152120351791382,-0.02992752008140087,-0.1646013706922531,9.959280014038086,0.008563799783587456,-8.131746290018782e-05,0.060947321355342865,-0.9980999231338501
1789658053401399500,1789658053413398069,0.012770400382578373,-0.03299019858241081,0.0904569998383522,-0.011971008032560349,-0.1951274424791336,9.853337287902832,0.00854013953357935,-0.0010344397742301226,0.05998696759343147,-0.9981576800346375
1789658053411984430,1789658053416699010,0.012770400382578373,-0.03299019858241081,0.0904569998383522,-0.011971008032560349,-0.1951274424791336,9.853337287902832,0.00854013953357935,-0.0010344397742301226,0.05998696759343147,-0.9981576800346375
1789658053417357102,1789658053420384862,0.012770400382578373,-0.03299019858241081,0.0904569998383522,-0.011971008032560349,-0.1951274424791336,9.853337287902832,0.00854013953357935,-0.0010344397742301226,0.05998696759343147,-0.9981576800346375
1789658053422001873,1789658053432267108,0.011706200428307056,-0.031925998628139496,0.09152120351791382,-0.09935937076807022,-0.17298106849193573,9.821613311767578,0.007326696068048477,-0.0007888661930337548,0.05903296917676926,-0.9982244968414307
1789658053433010230,1789658053439135152,0.011706200428307056,-0.031925998628139496,0.09152120351791382,-0.09935937076807022,-0.17298106849193573,9.821613311767578,0.007326696068048477,-0.0007888661930337548,0.05903296917676926,-0.9982244968414307
1789658053438814754,1789658053441876900,0.011706200428307056,-0.031925998628139496,0.09152120351791382,-0.09935937076807022,-0.17298106849193573,9.821613311767578,0.007326696068048477,-0.0007888661930337548,0.05903296917676926,-0.9982244968414307
1789658053441818516,1789658053453130885,0.012770400382578373,-0.031925998628139496,0.0904569998383522,-0.012569558806717396,-0.15682020783424377,9.859322547912598,0.00805762317031622,-0.0008418446523137391,0.05807865411043167,-0.9982748031616211
1789658053453836769,1789658053457408705,0.012770400382578373,-0.031925998628139496,0.0904569998383522,-0.012569558806717396,-0.15682020783424377,9.859322547912598,0.00805762317031622,-0.0008418446523137391,0.05807865411043167,-0.9982748031616211
1789658053457949122,1789658053460149694,0.012770400382578373,-0.031925998628139496,0.0904569998383522,-0.012569558806717396,-0.15682020783424377,9.859322547912598,0.00805762317031622,-0.0008418446523137391,0.05807865411043167,-0.9982748031616211
1789658053460780270,1789658053474878512,0.010641999542713165,-0.031925998628139496,0.0904569998383522,-0.02513911761343479,-0.20709843933582306,9.874286651611328,0.008556950837373734,0.00036028906470164657,0.05713622272014618,-0.9983253479003906
1789658053474796130,1789658053478795623,0.010641999542713165,-0.031925998628139496,0.0904569998383522,-0.02513911761343479,-0.20709843933582306,9.874286651611328,0.008556950837373734,0.00036028906470164657,0.05713622272014618,-0.9983253479003906
1789658053478712333,1789658053482698401,0.010641999542713165,-0.031925998628139496,0.0904569998383522,-0.02513911761343479,-0.20709843933582306,9.874286651611328,0.008556950837373734,0.00036028906470164657,0.05713622272014618,-0.9983253479003906
1789658053482139689,1789658053495224888,0.010641999542713165,-0.03086180053651333,0.09152120351791382,-0.05027823522686958,-0.1496376097202301,9.950302124023438,0.008817789144814014,0.0012894516112282872,0.05618523433804512,-0.9983763098716736
1789658053497085174,1789658053499141795,0.010641999542713165,-0.03086180053651333,0.09152120351791382,-0.05027823522686958,-0.1496376097202301,9.950302124023438,0.008817789144814014,0.0012894516112282872,0.05618523433804512,-0.9983763098716736
1789658053500360136,1789658053504281468,0.010641999542713165,-0.03086180053651333,0.09152120351791382,-0.05027823522686958,-0.1496376097202301,9.950302124023438,0.008817789144814014,0.0012894516112282872,0.05618523433804512,-0.9983763098716736
1789658053506958981,1789658053516455837,0.011706200428307056,-0.03086180053651333,0.09258539974689484,0.0017956512747332454,-0.19931729137897491,9.872490882873535,0.008394401520490646,0.00032819199259392917,0.05521358549594879,-0.998434841632843
1789658053517075433,1789658053520075418,0.011706200428307056,-0.03086180053651333,0.09258539974689484,0.0017956512747332454,-0.19931729137897491,9.872490882873535,0.008394401520490646,0.00032819199259392917,0.05521358549594879,-0.998434841632843
1789658053520824076,1789658053521886763,0.011706200428307056,-0.03086180053651333,0.09258539974689484,0.0017956512747332454,-0.19931729137897491,9.872490882873535,0.008394401520490646,0.00032819199259392917,0.05521358549594879,-0.998434841632843
1789658053524991702,1789658053536871097,0.011706200428307056,-0.03405439853668213,0.09364960342645645,-0.04429272934794426,-0.17956513166427612,9.841365814208984,0.007497440092265606,-0.0006155306473374367,0.05423654988408089,-0.9984954595565796
1789658053537132760,1789658053539317629,0.011706200428307056,-0.03405439853668213,0.09364960342645645,-0.04429272934794426,-0.17956513166427612,9.841365814208984,0.007497440092265606,-0.0006155306473374367,0.05423654988408089,-0.9984954595565796
1789658053540470438,1789658053543218815,0.011706200428307056,-0.03405439853668213,0.09364960342645645,-0.04429272934794426,-0.17956513166427612,9.841365814208984,0.007497440092265606,-0.0006155306473374367,0.05423654988408089,-0.9984954595565796
1789658053545260585,1789658053557223065,0.010641999542713165,-0.03405439853668213,0.09258539974689484,-0.0011971008498221636,-0.14724339544773102,9.944914817810059,0.007688925601541996,0.0003727395960595459,0.05327412486076355,-0.9985458850860596
1789658053557205418,1789658053560402498,0.010641999542713165,-0.03405439853668213,0.09258539974689484,-0.0011971008498221636,-0.14724339544773102,9.944914817810059,0.007688925601541996,0.0003727395960595459,0.05327412486076355,-0.9985458850860596
1789658053561100568,1789658053565286470,0.010641999542713165,-0.03405439853668213,0.09258539974689484,-0.0011971008498221636,-0.14724339544773102,9.944914817810059,0.007688925601541996,0.0003727395960595459,0.05327412486076355,-0.9985458850860596
1789658053565230179,1789658053578773783,0.011706200428307056,-0.031925998628139496,0.09258539974689484,0.005386953707784414,-0.1801636815071106,9.762357711791992,0.009058229625225067,-0.00015250249998643994,0.0523078516125679,-0.99858558177948
1789658053579218042,1789658053583700233,0.011706200428307056,-0.031925998628139496,0.09258539974689484,0.005386953707784414,-0.1801636815071106,9.762357711791992,0.009058229625225067,-0.00015250249998643994,0.0523078516125679,-0.99858558177948
1789658053583712640,1789658053588101895,0.011706200428307056,-0.031925998628139496,0.09258539974689484,0.005386953707784414,-0.1801636815071106,9.762357711791992,0.009058229625225067,-0.00015250249998643994,0.0523078516125679,-0.99858558177948
1789658053599162952,1789658053601297270,0.012770400382578373,-0.03299019858241081,0.09258539974689484,-0.019153613597154617,-0.1538274586200714,9.855133056640625,0.008206765167415142,0.0007947239209897816,0.051347170025110245,-0.9986425638198853
1789658053602468818,1789658053607473910,0.012770400382578373,-0.03299019858241081,0.09258539974689484,-0.019153613597154617,-0.1538274586200714,9.855133056640625,0.008206765167415142,0.0007947239209897816,0.051347170025110245,-0.9986425638198853
1789658053607502130,1789658053620326296,0.01383460033684969,-0.03086180053651333,0.09258539974689484,0.019153613597154617,-0.19812019169330597,9.945513725280762,0.009210119023919106,0.0017091691261157393,0.05038970708847046,-0.9986814260482788
1789658053621130449,1789658053624392449,0.01383460033684969,-0.03086180053651333,0.09258539974689484,0.019153613597154617,-0.19812019169330597,9.945513725280762,0.009210119023919106,0.0017091691261157393,0.05038970708847046,-0.9986814260482788
