t_ns,t_bag_ns,wx,wy,wz,ax,ay,az,qx,qy,qz,qw
1789657495018407200,1789657495033885544,0.01383460033684969,-0.03299019858241081,0.09258539974689484,0.0586579404771328,-0.07781155407428741,9.841365814208984,0.0033721195068210363,0.005121537949889898,-0.0639110654592514,-0.997932493686676
1789657495034523362,1789657495040292425,0.01383460033684969,-0.03299019858241081,0.09258539974689484,0.0586579404771328,-0.07781155407428741,9.841365814208984,0.0033721195068210363,0.005121537949889898,-0.0639110654592514,-0.997932493686676
1789657495040929669,1789657495052208227,0.012770400382578373,-0.03405439853668213,0.09152120351791382,0.11791443079710007,-0.11611878126859665,9.84376049041748,0.003931982442736626,0.006734095513820648,-0.06486336141824722,-0.9978592991828918
1789657495054204364,1789657495058206359,0.012770400382578373,-0.03405439853668213,0.09152120351791382,0.11791443079710007,-0.11611878126859665,9.84376049041748,0.003931982442736626,0.006734095513820648,-0.06486336141824722,-0.9978592991828918
1789657495058497796,1789657495063926516,0.012770400382578373,-0.03405439853668213,0.09152120351791382,0.11791443079710007,-0.11611878126859665,9.84376049041748,0.003931982442736626,0.006734095513820648,-0.06486336141824722,-0.9978592991828918
1789657495063996551,1789657495073813460,0.012770400382578373,-0.03299019858241081,0.09258539974689484,0.12749123573303223,-0.08499415963888168,9.916783332824707,0.0035145669244229794,0.007709692232310772,-0.06581325829029083,-0.9977917075157166
1789657495078139743,1789657495085030982,0.012770400382578373,-0.03299019858241081,0.09258539974689484,0.12749123573303223,-0.08499415963888168,9.916783332824707,0.0035145669244229794,0.007709692232310772,-0.06581325829029083,-0.9977917075157166
1789657495082341381,1789657495094075243,0.011706200428307056,-0.03405439853668213,0.09152120351791382,0.14065934717655182,-0.060453593730926514,9.886856079101562,0.002546556293964386,0.007380970288068056,-0.06676997244358063,-0.9977335333824158
1789657495095360582,1789657495100430570,0.011706200428307056,-0.03405439853668213,0.09152120351791382,0.14065934717655182,-0.060453593730926514,9.886856079101562,0.002546556293964386,0.007380970288068056,-0.06676997244358063,-0.9977335333824158
1789657495102368467,1789657495114670611,0.011706200428307056,-0.03299019858241081,0.0904569998383522,0.1173158809542656,-0.040701426565647125,9.923965454101562,0.003114728955551982,0.00796891376376152,-0.06770803034305573,-0.997664213180542
1789657495116858299,1789657495119637898,0.011706200428307056,-0.03299019858241081,0.0904569998383522,0.1173158809542656,-0.040701426565647125,9.923965454101562,0.003114728955551982,0.00796891376376152,-0.06770803034305573,-0.997664213180542
1789657495120719890,1789657495123951052,0.011706200428307056,-0.03299019858241081,0.0904569998383522,0.1173158809542656,-0.040701426565647125,9.923965454101562,0.003114728955551982,0.00796891376376152,-0.06770803034305573,-0.997664213180542
1789657495124868900,1789657495135798856,0.012770400382578373,-0.03299019858241081,0.09152120351791382,0.13287819921970367,-0.07960720360279083,9.876081466674805,0.003681922797113657,0.007161775138229132,-0.06866051256656647,-0.9976032376289368
1789657495138172668,1789657495140270395,0.012770400382578373,-0.03299019858241081,0.09152120351791382,0.13287819921970367,-0.07960720360279083,9.876081466674805,0.003681922797113657,0.007161775138229132,-0.06866051256656647,-0.9976032376289368
1789657495140921138,1789657495143500075,0.012770400382578373,-0.03299019858241081,0.09152120351791382,0.13287819921970367,-0.07960720360279083,9.876081466674805,0.003681922797113657,0.007161775138229132,-0.06866051256656647,-0.9976032376289368
1789657495144075543,1789657495157970407,0.01383460033684969,-0.031925998628139496,0.09258539974689484,0.06224924325942993,-0.08080430328845978,9.857526779174805,0.003845078870654106,0.008154034614562988,-0.06962623447179794,-0.997528076171875
1789657495159471834,1789657495162433613,0.01383460033684969,-0.031925998628139496,0.09258539974689484,0.06224924325942993,-0.08080430328845978,9.857526779174805,0.003845078870654106,0.008154034614562988,-0.06962623447179794,-0.997528076171875
1789657495163562160,1789657495165975157,0.01383460033684969,-0.031925998628139496,0.09258539974689484,0.06224924325942993,-0.08080430328845978,9.857526779174805,0.003845078870654106,0.008154034614562988,-0.06962623447179794,-0.997528076171875
1789657495168813458,1789657495177985068,0.011706200428307056,-0.03299019858241081,0.09152120351791382,0.16579847037792206,-0.10235211998224258,9.88386344909668,0.004674138966947794,0.008540946058928967,-0.07058551162481308,-0.9974538087844849
1789657495177990623,1789657495179790598,0.011706200428307056,-0.03299019858241081,0.09152120351791382,0.16579847037792206,-0.10235211998224258,9.88386344909668,0.004674138966947794,0.008540946058928967,-0.07058551162481308,-0.9974538087844849
1789657495180666632,1789657495184808846,0.011706200428307056,-0.03299019858241081,0.09152120351791382,0.16579847037792206,-0.10235211998224258,9.88386344909668,0.004674138966947794,0.008540946058928967,-0.07058551162481308,-0.9974538087844849
1789657495185946725,1789657495197917359,0.011706200428307056,-0.03299019858241081,0.09258539974689484,0.09038111567497253,-0.09277531504631042,9.852738380432129,0.00333851738832891,0.008200050331652164,-0.0715424120426178,-0.9973939657211304
1789657495198814023,1789657495200799067,0.011706200428307056,-0.03299019858241081,0.09258539974689484,0.09038111567497253,-0.09277531504631042,9.852738380432129,0.00333851738832891,0.008200050331652164,-0.0715424120426178,-0.9973939657211304
1789657495204447552,1789657495208293921,0.011706200428307056,-0.03299019858241081,0.09258539974689484,0.09038111567497253,-0.09277531504631042,9.852738380432129,0.00333851738832891,0.008200050331652164,-0.0715424120426178,-0.9973939657211304
1789657495208698559,1789657495219119953,0.011706200428307056,-0.03299019858241081,0.09364960342645645,0.19213467836380005,-0.08140285313129425,9.84615421295166,0.003229982452467084,0.007820540107786655,-0.07251156121492386,-0.9973273277282715
1789657495218753666,1789657495221956032,0.011706200428307056,-0.03299019858241081,0.09364960342645645,0.19213467836380005,-0.08140285313129425,9.84615421295166,0.003229982452467084,0.007820540107786655,-0.07251156121492386,-0.9973273277282715
1789657495223519624,1789657495227088666,0.011706200428307056,-0.03299019858241081,0.09364960342645645,0.19213467836380005,-0.08140285313129425,9.84615421295166,0.003229982452467084,0.007820540107786655,-0.07251156121492386,-0.9973273277282715
1789657495228947899,1789657495239812875,0.012770400382578373,-0.03405439853668213,0.09152120351791382,0.14604629576206207,-0.08080430328845978,9.856329917907715,0.003509863978251815,0.007525012828409672,-0.0734851136803627,-0.9972573518753052
1789657495240109293,1789657495242620973,0.012770400382578373,-0.03405439853668213,0.09152120351791382,0.14604629576206207,-0.08080430328845978,9.856329917907715,0.003509863978251815,0.007525012828409672,-0.0734851136803627,-0.9972573518753052
1789657495243522377,1789657495246691614,0.012770400382578373,-0.03405439853668213,0.09152120351791382,0.14604629576206207,-0.08080430328845978,9.856329917907715,0.003509863978251815,0.007525012828409672,-0.0734851136803627,-0.9972573518753052
1789657495248610271,1789657495261092485,0.010641999542713165,-0.031925998628139496,0.0904569998383522,0.17178396880626678,-0.0694318488240242,9.818620681762695,0.0032743001356720924,0.007134187500923872,-0.07442601770162582,-0.997191309928894
1789657495261031116,1789657495264074227,0.010641999542713165,-0.031925998628139496,0.0904569998383522,0.17178396880626678,-0.0694318488240242,9.818620681762695,0.0032743001356720924,0.007134187500923872,-0.07442601770162582,-0.997191309928894
1789657495264600715,1789657495268311291,0.010641999542713165,-0.031925998628139496,0.0904569998383522,0.17178396880626678,-0.0694318488240242,9.818620681762695,0.0032743001356720924,0.007134187500923872,-0.07442601770162582,-0.997191309928894
1789657495269415690,1789657495281796018,0.012770400382578373,-0.03086180053651333,0.09258539974689484,0.1604115068912506,-0.08200141042470932,9.87967300415039,0.00386196025647223,0.008258593268692493,-0.07538578659296036,-0.9971084594726562
1789657495282580202,1789657495287878073,0.012770400382578373,-0.03086180053651333,0.09258539974689484,0.1604115068912506,-0.08200141042470932,9.87967300415039,0.00386196025647223,0.008258593268692493,-0.07538578659296036,-0.9971084594726562
1789657495287906146,1789657495290811261,0.012770400382578373,-0.03086180053651333,0.09258539974689484,0.1604115068912506,-0.08200141042470932,9.87967300415039,0.00386196025647223,0.008258593268692493,-0.07538578659296036,-0.9971084594726562
1789657495291905178,1789657495303551580,0.01383460033684969,-0.031925998628139496,0.09152120351791382,0.10594342648983002,-0.10833762586116791,9.985616683959961,0.004155579023063183,0.006672025192528963,-0.07635283470153809,-0.9970455765724182
1789657495303667003,1789657495308786878,0.01383460033684969,-0.031925998628139496,0.09152120351791382,0.10594342648983002,-0.10833762586116791,9.985616683959961,0.004155579023063183,0.006672025192528963,-0.07635283470153809,-0.9970455765724182
1789657495311790860,1789657495323995359,0.012770400382578373,-0.03086180053651333,0.09152120351791382,0.16998831927776337,-0.090979665517807,10.00955867767334,0.0031682096887379885,0.006711068097501993,-0.07730274647474289,-0.9969757199287415
1789657495324974983,1789657495328046167,0.012770400382578373,-0.03086180053651333,0.09152120351791382,0.16998831927776337,-0.090979665517807,10.00955867767334,0.0031682096887379885,0.006711068097501993,-0.07730274647474289,-0.9969757199287415
1789657495329052365,1789657495332899716,0.012770400382578373,-0.03086180053651333,0.09152120351791382,0.16998831927776337,-0.090979665517807,10.00955867767334,0.0031682096887379885,0.006711068097501993,-0.07730274647474289,-0.9969757199287415
1789657495333647383,1789657495344826684,0.01383460033684969,-0.031925998628139496,0.09258539974689484,0.16579847037792206,-0.14484919607639313,9.998186111450195,0.004296861123293638,0.006412915885448456,-0.07826849073171616,-0.9968981742858887
1789657495345393596,1789657495348960046,0.01383460033684969,-0.031925998628139496,0.09258539974689484,0.16579847037792206,-0.14484919607639313,9.998186111450195,0.004296861123293638,0.006412915885448456,-0.07826849073171616,-0.9968981742858887
1789657495349822433,1789657495354291398,0.01383460033684969,-0.031925998628139496,0.09258539974689484,0.16579847037792206,-0.14484919607639313,9.998186111450195,0.004296861123293638,0.006412915885448456,-0.07826849073171616,-0.9968981742858887
1789657495354900883,1789657495365839376,0.011706200428307056,-0.031925998628139496,0.09258539974689484,0.1478419452905655,-0.08858545869588852,9.914388656616211,0.0038876410108059645,0.006038483697921038,-0.07924727350473404,-0.9968247413635254
1789657495366524748,1789657495369833500,0.011706200428307056,-0.031925998628139496,0.09258539974689484,0.1478419452905655,-0.08858545869588852,9.914388656616211,0.0038876410108059645,0.006038483697921038,-0.07924727350473404,-0.9968247413635254
1789657495370574408,1789657495373808292,0.011706200428307056,-0.031925998628139496,0.09258539974689484,0.1478419452905655,-0.08858545869588852,9.914388656616211,0.0038876410108059645,0.006038483697921038,-0.07924727350473404,-0.9968247413635254
1789657495373826403,1789657495385918312,0.012770400382578373,-0.031925998628139496,0.0904569998383522,0.16519992053508759,-0.11312603205442429,9.849146842956543,0.004796375520527363,0.006075610872358084,-0.08021942526102066,-0.996742844581604
1789657495386646294,1789657495389856123,0.012770400382578373,-0.031925998628139496,0.0904569998383522,0.16519992053508759,-0.11312603205442429,9.849146842956543,0.004796375520527363,0.006075610872358084,-0.08021942526102066,-0.996742844581604
1789657495390433517,1789657495394305163,0.012770400382578373,-0.031925998628139496,0.0904569998383522,0.16519992053508759,-0.11312603205442429,9.849146842956543,0.004796375520527363,0.006075610872358084,-0.08021942526102066,-0.996742844581604
1789657495393858914,1789657495396420667,0.012770400382578373,-0.031925998628139496,0.0904569998383522,0.16519992053508759,-0.11312603205442429,9.849146842956543,0.004796375520527363,0.006075610872358084,-0.08021942526102066,-0.996742844581604
1789657495398575188,1789657495407121443,0.012770400382578373,-0.03299019858241081,0.08939280360937119,0.12090718746185303,-0.09696516394615173,9.961075782775879,0.004312287084758282,0.005748417694121599,-0.08115151524543762,-0.9966714978218079
1789657495409136505,1789657495411652314,0.012770400382578373,-0.03299019858241081,0.08939280360937119,0.12090718746185303,-0.09696516394615173,9.961075782775879,0.004312287084758282,0.005748417694121599,-0.08115151524543762,-0.9966714978218079
1789657495413553471,1789657495416743708,0.012770400382578373,-0.03299019858241081,0.08939280360937119,0.12090718746185303,-0.09696516394615173,9.961075782775879,0.004312287084758282,0.005748417694121599,-0.08115151524543762,-0.9966714978218079
1789657495418522443,1789657495428584808,0.012770400382578373,-0.031925998628139496,0.09258539974689484,0.14484919607639313,-0.10235211998224258,9.864709854125977,0.004038333427160978,0.007592532318085432,-0.08210639655590057,-0.9965820908546448
1789657495428014730,1789657495431796063,0.012770400382578373,-0.031925998628139496,0.09258539974689484,0.14484919607639313,-0.10235211998224258,9.864709854125977,0.004038333427160978,0.007592532318085432,-0.08210639655590057,-0.9965820908546448
1789657495431515737,1789657495436356711,0.012770400382578373,-0.031925998628139496,0.09258539974689484,0.14484919607639313,-0.10235211998224258,9.864709854125977,0.004038333427160978,0.007592532318085432,-0.08210639655590057,-0.9965820908546448
1789657495435787225,1789657495437861360,0.012770400382578373,-0.031925998628139496,0.09258539974689484,0.14484919607639313,-0.10235211998224258,9.864709854125977,0.004038333427160978,0.007592532318085432,-0.08210639655590057,-0.9965820908546448
1789657495438676118,1789657495448875406,0.01383460033684969,-0.031925998628139496,0.09364960342645645,0.11432313174009323,-0.10474631935358047,9.903017044067383,0.004039668943732977,0.006457376293838024,-0.08309073001146317,-0.9965084791183472
1789657495449385320,1789657495452006089,0.01383460033684969,-0.031925998628139496,0.09364960342645645,0.11432313174009323,-0.10474631935358047,9.903017044067383,0.004039668943732977,0.006457376293838024,-0.08309073001146317,-0.9965084791183472
1789657495453416203,1789657495457369255,0.01383460033684969,-0.031925998628139496,0.09364960342645645,0.11432313174009323,-0.10474631935358047,9.903017044067383,0.004039668943732977,0.006457376293838024,-0.08309073001146317,-0.9965084791183472
1789657495458545837,1789657495470794390,0.014898800291121006,-0.031925998628139496,0.09258539974689484,0.09457096457481384,-0.0933738648891449,9.840168952941895,0.0030642638448625803,0.006119847763329744,-0.08406809717416763,-0.9964323043823242
1789657495470120296,1789657495472720362,0.014898800291121006,-0.031925998628139496,0.09258539974689484,0.09457096457481384,-0.0933738648891449,9.840168952941895,0.0030642638448625803,0.006119847763329744,-0.08406809717416763,-0.9964323043823242
1789657495473463344,1789657495476860187,0.014898800291121006,-0.031925998628139496,0.09258539974689484,0.09457096457481384,-0.0933738648891449,9.840168952941895,0.0030642638448625803,0.006119847763329744,-0.08406809717416763,-0.9964323043823242
1789657495478503424,1789657495491699140,0.01383460033684969,-0.03086180053651333,0.09152120351791382,0.19632454216480255,-0.08200141042470932,9.84735107421875,0.003890062915161252,0.006263884250074625,-0.08502835035324097,-0.9963469505310059
1789657495491017619,1789657495494086359,0.01383460033684969,-0.03086180053651333,0.09152120351791382,0.19632454216480255,-0.08200141042470932,9.84735107421875,0.003890062915161252,0.006263884250074625,-0.08502835035324097,-0.9963469505310059
1789657495494711048,1789657495497798713,0.01383460033684969,-0.03086180053651333,0.09152120351791382,0.19632454216480255,-0.08200141042470932,9.84735107421875,0.003890062915161252,0.006263884250074625,-0.08502835035324097,-0.9963469505310059
1789657495498683081,1789657495511691189,0.012770400382578373,-0.03086180053651333,0.09258539974689484,0.14604629576206207,-0.0652419924736023,9.955689430236816,0.004090684931725264,0.005969018209725618,-0.08599186688661575,-0.9962652325630188
1789657495513676196,1789657495517231906,0.012770400382578373,-0.03086180053651333,0.09258539974689484,0.14604629576206207,-0.0652419924736023,9.955689430236816,0.004090684931725264,0.005969018209725618,-0.08599186688661575,-0.9962652325630188
1789657495518449728,1789657495521029424,0.012770400382578373,-0.03086180053651333,0.09258539974689484,0.14604629576206207,-0.0652419924736023,9.955689430236816,0.004090684931725264,0.005969018209725618,-0.08599186688661575,-0.9962652325630188
1789657495523557474,1789657495532891894,0.011706200428307056,-0.03086180053651333,0.09258539974689484,0.1538274586200714,-0.08259996026754379,9.983820915222168,0.0028306939639151096,0.006696111522614956,-0.0869452953338623,-0.9961822628974915
1789657495533520694,1789657495538124545,0.011706200428307056,-0.03086180053651333,0.09258539974689484,0.1538274586200714,-0.08259996026754379,9.983820915222168,0.0028306939639151096,0.006696111522614956,-0.0869452953338623,-0.9961822628974915
1789657495538760492,1789657495541821695,0.011706200428307056,-0.03086180053651333,0.09258539974689484,0.1538274586200714,-0.08259996026754379,9.983820915222168,0.0028306939639151096,0.006696111522614956,-0.0869452953338623,-0.9961822628974915
1789657495543526931,1789657495553963807,0.011706200428307056,-0.03086180053651333,0.0904569998383522,0.1149216815829277,-0.06763619929552078,9.883264541625977,0.0032964698038995266,0.006294354796409607,-0.08790504932403564,-0.9960991740226746
1789657495553908308,1789657495556492523,0.011706200428307056,-0.03086180053651333,0.0904569998383522,0.1149216815829277,-0.06763619929552078,9.883264541625977,0.0032964698038995266,0.006294354796409607,-0.08790504932403564,-0.9960991740226746
1789657495558556102,1789657495561465568,0.011706200428307056,-0.03086180053651333,0.0904569998383522,0.1149216815829277,-0.06763619929552078,9.883264541625977,0.0032964698038995266,0.006294354796409607,-0.08790504932403564,-0.9960991740226746
1789657495563616960,1789657495574934666,0.011706200428307056,-0.031925998628139496,0.09152120351791382,0.11372458189725876,-0.10295066982507706,9.939528465270996,0.003857963252812624,0.005657189525663853,-0.08886302262544632,-0.9960160255432129
1789657495574868815,1789657495576695845,0.011706200428307056,-0.031925998628139496,0.09152120351791382,0.11372458189725876,-0.10295066982507706,9.939528465270996,0.003857963252812624,0.005657189525663853,-0.08886302262544632,-0.9960160255432129
1789657495578521671,1789657495581727907,0.011706200428307056,-0.031925998628139496,0.09152120351791382,0.11372458189725876,-0.10295066982507706,9.939528465270996,0.003857963252812624,0.005657189525663853,-0.08886302262544632,-0.9960160255432129
1789657495583520530,1789657495595701641,0.01383460033684969,-0.031925998628139496,0.0904569998383522,0.1496376097202301,-0.05686229094862938,9.749787330627441,0.0035513159818947315,0.007512093987315893,-0.08979678153991699,-0.9959211945533752
1789657495595049379,1789657495598837638,0.01383460033684969,-0.031925998628139496,0.0904569998383522,0.1496376097202301,-0.05686229094862938,9.749787330627441,0.0035513159818947315,0.007512093987315893,-0.08979678153991699,-0.9959211945533752
1789657495598635051,1789657495602896039,0.01383460033684969,-0.031925998628139496,0.0904569998383522,0.1496376097202301,-0.05686229094862938,9.749787330627441,0.0035513159818947315,0.007512093987315893,-0.08979678153991699,-0.9959211945533752
1789657495605178206,1789657495617911210,0.012770400382578373,-0.031925998628139496,0.09152120351791382,0.12749123573303223,-0.09696516394615173,9.939528465270996,0.004042411223053932,0.006815820932388306,-0.09074993431568146,-0.9958378076553345
1789657495618930611,1789657495622355861,0.012770400382578373,-0.031925998628139496,0.09152120351791382,0.12749123573303223,-0.09696516394615173,9.939528465270996,0.004042411223053932,0.006815820932388306,-0.09074993431568146,-0.9958378076553345
1789657495623577128,1789657495626736606,0.012770400382578373,-0.031925998628139496,0.09152120351791382,0.12749123573303223,-0.09696516394615173,9.939528465270996,0.004042411223053932,0.006815820932388306,-0.09074993431568146,-0.9958378076553345
1789657495628810648,1789657495637228869,0.012770400382578373,-0.031925998628139496,0.09152120351791382,0.08080430328845978,-0.061052143573760986,9.764152526855469,0.00283727771602571,0.005428060423582792,-0.09170402586460114,-0.9957630634307861
1789657495637535343,1789657495639660032,0.012770400382578373,-0.031925998628139496,0.09152120351791382,0.08080430328845978,-0.061052143573760986,9.764152526855469,0.00283727771602571,0.005428060423582792,-0.09170402586460114,-0.9957630634307861
1789657495640530214,1789657495643879040,0.012770400382578373,-0.031925998628139496,0.09152120351791382,0.08080430328845978,-0.061052143573760986,9.764152526855469,0.00283727771602571,0.005428060423582792,-0.09170402586460114,-0.9957630634307861
1789657495644523117,1789657495646665453,0.012770400382578373,-0.031925998628139496,0.09152120351791382,0.08080430328845978,-0.061052143573760986,9.764152526855469,0.00283727771602571,0.005428060423582792,-0.09170402586460114,-0.9957630634307861
1789657495648514668,1789657495658069360,0.012770400382578373,-0.031925998628139496,0.09152120351791382,0.17896656692028046,-0.12270283699035645,9.790489196777344,0.004178239498287439,0.007063854951411486,-0.09266342967748642,-0.9956594109535217
1789657495657983992,1789657495660825497,0.012770400382578373,-0.031925998628139496,0.09152120351791382,0.17896656692028046,-0.12270283699035645,9.790489196777344,0.004178239498287439,0.007063854951411486,-0.09266342967748642,-0.9956594109535217
1789657495661602478,1789657495665089171,0.012770400382578373,-0.031925998628139496,0.09152120351791382,0.17896656692028046,-0.12270283699035645,9.790489196777344,0.004178239498287439,0.007063854951411486,-0.09266342967748642,-0.9956594109535217
1789657495665802765,1789657495679290287,0.011706200428307056,-0.031925998628139496,0.09152120351791382,0.04249707981944084,-0.10833762586116791,9.883264541625977,0.005383471958339214,0.006565548945218325,-0.09363288432359695,-0.9955662488937378
1789657495679895328,1789657495684793246,0.011706200428307056,-0.031925998628139496,0.09152120351791382,0.04249707981944084,-0.10833762586116791,9.883264541625977,0.005383471958339214,0.006565548945218325,-0.09363288432359695,-0.9955662488937378
1789657495685702631,1789657495688010093,0.011706200428307056,-0.031925998628139496,0.09152120351791382,0.04249707981944084,-0.10833762586116791,9.883264541625977,0.005383471958339214,0.006565548945218325,-0.09363288432359695,-0.9955662488937378
1789657495689140455,1789657495699929636,0.011706200428307056,-0.03086180053651333,0.09258539974689484,0.15023615956306458,-0.12629413604736328,9.774328231811523,0.004605390131473541,0.007817213423550129,-0.09458354860544205,-0.9954712986946106
1789657495700638415,1789657495703901465,0.011706200428307056,-0.03086180053651333,0.09258539974689484,0.15023615956306458,-0.12629413604736328,9.774328231811523,0.004605390131473541,0.007817213423550129,-0.09458354860544205,-0.9954712986946106
1789657495706980520,1789657495708665442,0.011706200428307056,-0.03086180053651333,0.09258539974689484,0.15023615956306458,-0.12629413604736328,9.774328231811523,0.004605390131473541,0.007817213423550129,-0.09458354860544205,-0.9954712986946106
1789657495709649955,1789657495721215598,0.011706200428307056,-0.031925998628139496,0.09258539974689484,0.07242459803819656,-0.10893617570400238,9.882665634155273,0.003765268949791789,0.006586264353245497,-0.09556160122156143,-0.9953902959823608
1789657495721825195,1789657495724940526,0.011706200428307056,-0.031925998628139496,0.09258539974689484,0.07242459803819656,-0.10893617570400238,9.882665634155273,0.003765268949791789,0.006586264353245497,-0.09556160122156143,-0.9953902959823608
1789657495725709359,1789657495728719601,0.011706200428307056,-0.031925998628139496,0.09258539974689484,0.07242459803819656,-0.10893617570400238,9.882665634155273,0.003765268949791789,0.006586264353245497,-0.09556160122156143,-0.9953902959823608
1789657495729221792,1789657495741993258,0.011706200428307056,-0.035118598490953445,0.09152120351791382,0.1280897855758667,-0.0454898327589035,9.835380554199219,0.0016215958166867495,0.006818920373916626,-0.09652115404605865,-0.9953019022941589
1789657495742556819,1789657495745850257,0.011706200428307056,-0.035118598490953445,0.09152120351791382,0.1280897855758667,-0.0454898327589035,9.835380554199219,0.0016215958166867495,0.006818920373916626,-0.09652115404605865,-0.9953019022941589
1789657495746434595,1789657495748940700,0.011706200428307056,-0.035118598490953445,0.09152120351791382,0.1280897855758667,-0.0454898327589035,9.835380554199219,0.0016215958166867495,0.006818920373916626,-0.09652115404605865,-0.9953019022941589
1789657495749505112,1789657495768622831,0.011706200428307056,-0.03299019858241081,0.09152120351791382,0.15741875767707825,-0.09816227108240128,9.758167266845703,0.003321401309221983,0.007657463196665049,-0.09749093651771545,-0.9951971173286438
1789657495763622824,1789657495770662893,0.011706200428307056,-0.03299019858241081,0.09152120351791382,0.15741875767707825,-0.09816227108240128,9.758167266845703,0.003321401309221983,0.007657463196665049,-0.09749093651771545,-0.9951971173286438
1789657495769260279,1789657495772950448,0.011706200428307056,-0.03299019858241081,0.09152120351791382,0.15741875767707825,-0.09816227108240128,9.758167266845703,0.003321401309221983,0.007657463196665049,-0.09749093651771545,-0.9951971173286438
1789657495773459121,1789657495783059183,0.012770400382578373,-0.03299019858241081,0.09152120351791382,0.033518824726343155,-0.10953472554683685,9.870695114135742,0.0026228532660752535,0.008474585600197315,-0.09843966364860535,-0.9950991272926331
1789657495782980666,1789657495785763802,0.012770400382578373,-0.03299019858241081,0.09152120351791382,0.033518824726343155,-0.10953472554683685,9.870695114135742,0.0026228532660752535,0.008474585600197315,-0.09843966364860535,-0.9950991272926331
1789657495786749686,1789657495789902053,0.012770400382578373,-0.03299019858241081,0.09152120351791382,0.033518824726343155,-0.10953472554683685,9.870695114135742,0.0026228532660752535,0.008474585600197315,-0.09843966364860535,-0.9950991272926331
1789657495790797550,1789657495793322803,0.012770400382578373,-0.03299019858241081,0.09152120351791382,0.033518824726343155,-0.10953472554683685,9.870695114135742,0.0026228532660752535,0.008474585600197315,-0.09843966364860535,-0.9950991272926331
1789657495794265002,1789657495804452624,0.012770400382578373,-0.03299019858241081,0.09258539974689484,0.11971008032560349,-0.07541735470294952,9.79408073425293,0.0033614712301641703,0.009143225848674774,-0.09941726922988892,-0.9949938654899597
1789657495804867744,1789657495806734291,0.012770400382578373,-0.03299019858241081,0.09258539974689484,0.11971008032560349,-0.07541735470294952,9.79408073425293,0.0033614712301641703,0.009143225848674774,-0.09941726922988892,-0.9949938654899597
1789657495808698410,1789657495810946670,0.012770400382578373,-0.03299019858241081,0.09258539974689484,0.11971008032560349,-0.07541735470294952,9.79408073425293,0.0033614712301641703,0.009143225848674774,-0.09941726922988892,-0.9949938654899597
1789657495813515292,1789657495825881528,0.012770400382578373,-0.03405439853668213,0.09152120351791382,0.07481880486011505,-0.10354921966791153,9.847949981689453,0.004595033824443817,0.008441152051091194,-0.10040323436260223,-0.9948961138725281
1789657495825116991,1789657495829010748,0.012770400382578373,-0.03405439853668213,0.09152120351791382,0.07481880486011505,-0.10354921966791153,9.847949981689453,0.004595033824443817,0.008441152051091194,-0.10040323436260223,-0.9948961138725281
1789657495829707712,1789657495831973638,0.012770400382578373,-0.03405439853668213,0.09152120351791382,0.07481880486011505,-0.10354921966791153,9.847949981689453,0.004595033824443817,0.008441152051091194,-0.10040323436260223,-0.9948961138725281
1789657495833766224,1789657495845952353,0.011706200428307056,-0.03299019858241081,0.0904569998383522,0.10474631935358047,-0.046088382601737976,9.724648475646973,0.003353007836267352,0.00926714763045311,-0.10133423656225204,-0.9947993159294128
1789657495845892095,1789657495848692342,0.011706200428307056,-0.03299019858241081,0.0904569998383522,0.10474631935358047,-0.046088382601737976,9.724648475646973,0.003353007836267352,0.00926714763045311,-0.10133423656225204,-0.9947993159294128
1789657495849487693,1789657495853428504,0.011706200428307056,-0.03299019858241081,0.0904569998383522,0.10474631935358047,-0.046088382601737976,9.724648475646973,0.003353007836267352,0.00926714763045311,-0.10133423656225204,-0.9947993159294128
1789657495853773977,1789657495867056894,0.012770400382578373,-0.03086180053651333,0.09152120351791382,0.18914192914962769,-0.07960720360279083,9.798270225524902,0.0031992068979889154,0.008886716328561306,-0.10228234529495239,-0.9947062730789185
1789657495867743081,1789657495873449923,0.012770400382578373,-0.03086180053651333,0.09152120351791382,0.18914192914962769,-0.07960720360279083,9.798270225524902,0.0031992068979889154,0.008886716328561306,-0.10228234529495239,-0.9947062730789185
1789657495873201670,1789657495876274151,0.012770400382578373,-0.03086180053651333,0.09152120351791382,0.18914192914962769,-0.07960720360279083,9.798270225524902,0.0031992068979889154,0.008886716328561306,-0.10228234529495239,-0.9947062730789185
1789657495876585013,1789657495888739273,0.011706200428307056,-0.03086180053651333,0.0904569998383522,0.090979665517807,-0.08918400853872299,9.871891975402832,0.003960774280130863,0.007456078194081783,-0.1032412201166153,-0.9946161508560181
1789657495888580869,1789657495892520736,0.011706200428307056,-0.03086180053651333,0.0904569998383522,0.090979665517807,-0.08918400853872299,9.871891975402832,0.003960774280130863,0.007456078194081783,-0.1032412201166153,-0.9946161508560181
1789657495893604376,1789657495896925832,0.011706200428307056,-0.03086180053651333,0.0904569998383522,0.090979665517807,-0.08918400853872299,9.871891975402832,0.003960774280130863,0.007456078194081783,-0.1032412201166153,-0.9946161508560181
1789657495899148352,1789657495909628967,0.010641999542713165,-0.03086180053651333,0.0904569998383522,0.07960720360279083,-0.0933738648891449,10.025120735168457,0.004443226847797632,0.008318566717207432,-0.10419544577598572,-0.9945077896118164
1789657495912204441,1789657495916019422,0.010641999542713165,-0.03086180053651333,0.0904569998383522,0.07960720360279083,-0.0933738648891449,10.025120735168457,0.004443226847797632,0.008318566717207432,-0.10419544577598572,-0.9945077896118164
1789657495916795570,1789657495929931768,0.011706200428307056,-0.03086180053651333,0.0904569998383522,0.1538274586200714,-0.10773907601833344,9.851541519165039,0.004530022852122784,0.007914116606116295,-0.10514280945062637,-0.9944109320640564
1789657495930811636,1789657495933855284,0.011706200428307056,-0.03086180053651333,0.0904569998383522,0.1538274586200714,-0.10773907601833344,9.851541519165039,0.004530022852122784,0.007914116606116295,-0.10514280945062637,-0.9944109320640564
1789657495934574766,1789657495937830131,0.011706200428307056,-0.03086180053651333,0.0904569998383522,0.1538274586200714,-0.10773907601833344,9.851541519165039,0.004530022852122784,0.007914116606116295,-0.10514280945062637,-0.9944109320640564
1789657495938797478,1789657495949809117,0.011706200428307056,-0.03405439853668213,0.0904569998383522,0.11671733111143112,-0.05386953800916672,9.898228645324707,0.002934805117547512,0.008368329145014286,-0.10607559233903885,-0.9943141937255859
1789657495950632985,1789657495952753915,0.011706200428307056,-0.03405439853668213,0.0904569998383522,0.11671733111143112,-0.05386953800916672,9.898228645324707,0.002934805117547512,0.008368329145014286,-0.10607559233903885,-0.9943141937255859
1789657495953662060,1789657495956952794,0.011706200428307056,-0.03405439853668213,0.0904569998383522,0.11671733111143112,-0.05386953800916672,9.898228645324707,0.002934805117547512,0.008368329145014286,-0.10607559233903885,-0.9943141937255859
1789657495959024929,1789657495971152763,0.011706200428307056,-0.03299019858241081,0.0904569998383522,0.24480712413787842,-0.076015904545784,9.90481185913086,0.003784806001931429,0.009865750558674335,-0.10701077431440353,-0.994197428226471
1789657495971181188,1789657495973940306,0.011706200428307056,-0.03299019858241081,0.0904569998383522,0.24480712413787842,-0.076015904545784,9.90481185913086,0.003784806001931429,0.009865750558674335,-0.10701077431440353,-0.994197428226471
1789657495974508607,1789657495977983263,0.011706200428307056,-0.03299019858241081,0.0904569998383522,0.24480712413787842,-0.076015904545784,9.90481185913086,0.003784806001931429,0.009865750558674335,-0.10701077431440353,-0.994197428226471
1789657495978554582,1789657495980723363,0.011706200428307056,-0.03299019858241081,0.0904569998383522,0.24480712413787842,-0.076015904545784,9.90481185913086,0.003784806001931429,0.009865750558674335,-0.10701077431440353,-0.994197428226471
1789657495983533239,1789657495993837025,0.010641999542713165,-0.03299019858241081,0.0904569998383522,0.12449848651885986,-0.07900865375995636,9.942521095275879,0.0038558398373425007,0.008242163807153702,-0.10795943439006805,-0.9941093325614929
1789657495993161819,1789657495997567174,0.010641999542713165,-0.03299019858241081,0.0904569998383522,0.12449848651885986,-0.07900865375995636,9.942521095275879,0.0038558398373425007,0.008242163807153702,-0.10795943439006805,-0.9941093325614929
1789657495997817446,1789657496003313701,0.010641999542713165,-0.03299019858241081,0.0904569998383522,0.12449848651885986,-0.07900865375995636,9.942521095275879,0.0038558398373425007,0.008242163807153702,-0.10795943439006805,-0.9941093325614929
1789657496004047276,1789657496013326531,0.011706200428307056,-0.03086180053651333,0.08939280360937119,0.09696516394615173,-0.05925649031996727,9.930549621582031,0.0026889138389378786,0.008875427767634392,-0.10888177901506424,-0.9940071702003479
1789657496015778304,1789657496018156024,0.011706200428307056,-0.03086180053651333,0.08939280360937119,0.09696516394615173,-0.05925649031996727,9.930549621582031,0.0026889138389378786,0.008875427767634392,-0.10888177901506424,-0.9940071702003479
1789657496018638790,1789657496023243344,0.011706200428307056,-0.03086180053651333,0.08939280360937119,0.09696516394615173,-0.05925649031996727,9.930549621582031,0.0026889138389378786,0.008875427767634392,-0.10888177901506424,-0.9940071702003479
1789657496023878699,1789657496033954101,0.011706200428307056,-0.03299019858241081,0.0904569998383522,0.18614917993545532,-0.08140285313129425,9.874884605407715,0.00309037696570158,0.008620006032288074,-0.10981586575508118,-0.9939054250717163
1789657496034690917,1789657496037598938,0.011706200428307056,-0.03299019858241081,0.0904569998383522,0.18614917993545532,-0.08140285313129425,9.874884605407715,0.00309037696570158,0.008620006032288074,-0.10981586575508118,-0.9939054250717163
1789657496038958998,1789657496040664178,0.011706200428307056,-0.03299019858241081,0.0904569998383522,0.18614917993545532,-0.08140285313129425,9.874884605407715,0.00309037696570158,0.008620006032288074,-0.10981586575508118,-0.9939054250717163
1789657496043531108,1789657496055224230,0.011706200428307056,-0.031925998628139496,0.09152120351791382,0.16160860657691956,-0.10773907601833344,9.996989250183105,0.00451650470495224,0.008927778340876102,-0.11078380793333054,-0.993789792060852
1789657496055127492,1789657496056895338,0.011706200428307056,-0.031925998628139496,0.09152120351791382,0.16160860657691956,-0.10773907601833344,9.996989250183105,0.00451650470495224,0.008927778340876102,-0.11078380793333054,-0.993789792060852
1789657496058690813,1789657496064806867,0.011706200428307056,-0.031925998628139496,0.09152120351791382,0.16160860657691956,-0.10773907601833344,9.996989250183105,0.00451650470495224,0.008927778340876102,-0.11078380793333054,-0.993789792060852
1789657496064899439,1789657496075793117,0.012770400382578373,-0.031925998628139496,0.0904569998383522,0.21787235140800476,-0.12090718746185303,9.973645210266113,0.00368180382065475,0.008850164711475372,-0.11172831803560257,-0.99368816614151
1789657496076582339,1789657496079755169,0.012770400382578373,-0.031925998628139496,0.0904569998383522,0.21787235140800476,-0.12090718746185303,9.973645210266113,0.00368180382065475,0.008850164711475372,-0.11172831803560257,-0.99368816614151
1789657496080723979,1789657496083003645,0.012770400382578373,-0.031925998628139496,0.0904569998383522,0.21787235140800476,-0.12090718746185303,9.973645210266113,0.00368180382065475,0.008850164711475372,-0.11172831803560257,-0.99368816614151
1789657496083586816,1789657496100394350,0.012770400382578373,-0.03086180053651333,0.09152120351791382,0.15442600846290588,-0.14484919607639313,9.917980194091797,0.004320042673498392,0.007992631755769253,-0.11269285529851913,-0.9935840368270874
1789657496097794488,1789657496102663073,0.012770400382578373,-0.03086180053651333,0.09152120351791382,0.15442600846290588,-0.14484919607639313,9.917980194091797,0.004320042673498392,0.007992631755769253,-0.11269285529851913,-0.9935840368270874
1789657496101485028,1789657496104695783,0.012770400382578373,-0.03086180053651333,0.09152120351791382,0.15442600846290588,-0.14484919607639313,9.917980194091797,0.004320042673498392,0.007992631755769253,-0.11269285529851913,-0.9935840368270874
1789657496105887365,1789657496118319339,0.012770400382578373,-0.03086180053651333,0.09258539974689484,0.14365209639072418,-0.09217676520347595,10.111910820007324,0.00461127795279026,0.007570247165858746,-0.11366987973451614,-0.9934747219085693
1789657496118666553,1789657496122156931,0.012770400382578373,-0.03086180053651333,0.09258539974689484,0.14365209639072418,-0.09217676520347595,10.111910820007324,0.00461127795279026,0.007570247165858746,-0.11366987973451614,-0.9934747219085693
1789657496124553946,1789657496127446172,0.012770400382578373,-0.03086180053651333,0.09258539974689484,0.14365209639072418,-0.09217676520347595,10.111910820007324,0.00461127795279026,0.007570247165858746,-0.11366987973451614,-0.9934747219085693
1789657496128937432,1789657496139088758,0.012770400382578373,-0.03086180053651333,0.09152120351791382,0.18794482946395874,-0.104147769510746,9.892841339111328,0.004517466761171818,0.00716741057112813,-0.11463382095098495,-0.9933673739433289
1789657496139024056,1789657496142128295,0.012770400382578373,-0.03086180053651333,0.09152120351791382,0.18794482946395874,-0.104147769510746,9.892841339111328,0.004517466761171818,0.00716741057112813,-0.11463382095098495,-0.9933673739433289
1789657496143519891,1789657496145841982,0.012770400382578373,-0.03086180053651333,0.09152120351791382,0.18794482946395874,-0.104147769510746,9.892841339111328,0.004517466761171818,0.00716741057112813,-0.11463382095098495,-0.9933673739433289
1789657496148563731,1789657496159141454,0.012770400382578373,-0.031925998628139496,0.09152120351791382,0.1454477459192276,-0.09157821536064148,9.947309494018555,0.003772130236029625,0.006866649258881807,-0.1155920997262001,-0.993261456489563
1789657496159198341,1789657496161949422,0.012770400382578373,-0.031925998628139496,0.09152120351791382,0.1454477459192276,-0.09157821536064148,9.947309494018555,0.003772130236029625,0.006866649258881807,-0.1155920997262001,-0.993261456489563
1789657496163710880,1789657496166011546,0.012770400382578373,-0.031925998628139496,0.09152120351791382,0.1454477459192276,-0.09157821536064148,9.947309494018555,0.003772130236029625,0.006866649258881807,-0.1155920997262001,-0.993261456489563
1789657496168556502,1789657496179992871,0.011706200428307056,-0.03405439853668213,0.09258539974689484,0.16998831927776337,-0.09576806426048279,9.928155899047852,0.003963125869631767,0.008889793418347836,-0.11653832346200943,-0.9931342005729675
1789657496179936632,1789657496182927355,0.011706200428307056,-0.03405439853668213,0.09258539974689484,0.16998831927776337,-0.09576806426048279,9.928155899047852,0.003963125869631767,0.008889793418347836,-0.11653832346200943,-0.9931342005729675
1789657496183907905,1789657496187678350,0.011706200428307056,-0.03405439853668213,0.09258539974689484,0.16998831927776337,-0.09576806426048279,9.928155899047852,0.003963125869631767,0.008889793418347836,-0.11653832346200943,-0.9931342005729675
1789657496189195554,1789657496201889818,0.011706200428307056,-0.03299019858241081,0.09258539974689484,0.11911153048276901,-0.09397241473197937,9.84495735168457,0.0037574118468910456,0.007230094633996487,-0.11751049757003784,-0.9930338859558105
1789657496201004007,1789657496205829074,0.011706200428307056,-0.03299019858241081,0.09258539974689484,0.11911153048276901,-0.09397241473197937,9.84495735168457,0.0037574118468910456,0.007230094633996487,-0.11751049757003784,-0.9930338859558105
1789657496208185146,1789657496210617920,0.011706200428307056,-0.03299019858241081,0.09258539974689484,0.11911153048276901,-0.09397241473197937,9.84495735168457,0.0037574118468910456,0.007230094633996487,-0.11751049757003784,-0.9930338859558105
1789657496211116556,1789657496223087264,0.01383460033684969,-0.03086180053651333,0.0904569998383522,0.08559270948171616,-0.09816227108240128,9.843161582946777,0.003935760352760553,0.008227333426475525,-0.11844812333583832,-0.9929140210151672
1789657496224246754,1789657496228153400,0.01383460033684969,-0.03086180053651333,0.0904569998383522,0.08559270948171616,-0.09816227108240128,9.843161582946777,0.003935760352760553,0.008227333426475525,-0.11844812333583832,-0.9929140210151672
1789657496229362426,1789657496231526928,0.01383460033684969,-0.03086180053651333,0.0904569998383522,0.08559270948171616,-0.09816227108240128,9.843161582946777,0.003935760352760553,0.008227333426475525,-0.11844812333583832,-0.9929140210151672
1789657496233559027,1789657496243291938,0.011706200428307056,-0.031925998628139496,0.09152120351791382,0.1304839849472046,-0.08140285313129425,9.81024169921875,0.0034538251347839832,0.00720074912533164,-0.1194014698266983,-0.9928095936775208
1789657496243000760,1789657496244701533,0.011706200428307056,-0.031925998628139496,0.09152120351791382,0.1304839849472046,-0.08140285313129425,9.81024169921875,0.0034538251347839832,0.00720074912533164,-0.1194014698266983,-0.9928095936775208
1789657496245530957,1789657496247742236,0.011706200428307056,-0.031925998628139496,0.09152120351791382,0.1304839849472046,-0.08140285313129425,9.81024169921875,0.0034538251347839832,0.00720074912533164,-0.1194014698266983,-0.9928095936775208
1789657496248591827,1789657496252271848,0.011706200428307056,-0.031925998628139496,0.09152120351791382,0.1304839849472046,-0.08140285313129425,9.81024169921875,0.0034538251347839832,0.00720074912533164,-0.1194014698266983,-0.9928095936775208
1789657496253464967,1789657496264087041,0.011706200428307056,-0.031925998628139496,0.09152120351791382,0.11671733111143112,-0.09157821536064148,9.839570045471191,0.003864455735310912,0.006553501356393099,-0.12036269903182983,-0.9926964640617371
1789657496264216890,1789657496267326573,0.011706200428307056,-0.031925998628139496,0.09152120351791382,0.11671733111143112,-0.09157821536064148,9.839570045471191,0.003864455735310912,0.006553501356393099,-0.12036269903182983,-0.9926964640617371
1789657496268785167,1789657496272305693,0.011706200428307056,-0.031925998628139496,0.09152120351791382,0.11671733111143112,-0.09157821536064148,9.839570045471191,0.003864455735310912,0.006553501356393099,-0.12036269903182983,-0.9926964640617371
1789657496273488386,1789657496285760716,0.011706200428307056,-0.031925998628139496,0.09152120351791382,0.17178396880626678,-0.061052143573760986,9.859322547912598,0.0034615853801369667,0.008486540988087654,-0.12130603194236755,-0.9925685524940491
1789657496285118750,1789657496288393152,0.011706200428307056,-0.031925998628139496,0.09152120351791382,0.17178396880626678,-0.061052143573760986,9.859322547912598,0.0034615853801369667,0.008486540988087654,-0.12130603194236755,-0.9925685524940491
1789657496289245613,1789657496292050914,0.011706200428307056,-0.031925998628139496,0.09152120351791382,0.17178396880626678,-0.061052143573760986,9.859322547912598,0.0034615853801369667,0.008486540988087654,-0.12130603194236755,-0.9925685524940491
1789657496293856074,1789657496305838522,0.011706200428307056,-0.031925998628139496,0.08939280360937119,0.13108253479003906,-0.1430535465478897,9.91738224029541,0.004838982131332159,0.007635440211743116,-0.12225908041000366,-0.9924526810646057
1789657496305935020,1789657496307744309,0.011706200428307056,-0.031925998628139496,0.08939280360937119,0.13108253479003906,-0.1430535465478897,9.91738224029541,0.004838982131332159,0.007635440211743116,-0.12225908041000366,-0.9924526810646057
1789657496309774575,1789657496313020181,0.011706200428307056,-0.031925998628139496,0.08939280360937119,0.13108253479003906,-0.1430535465478897,9.91738224029541,0.004838982131332159,0.007635440211743116,-0.12225908041000366,-0.9924526810646057
1789657496313555760,1789657496327227889,0.011706200428307056,-0.03405439853668213,0.0904569998383522,0.07003039866685867,-0.09038111567497253,9.893440246582031,0.005195809528231621,0.008489305153489113,-0.1232018917798996,-0.9923273324966431
1789657496327748710,1789657496331161682,0.011706200428307056,-0.03405439853668213,0.0904569998383522,0.07003039866685867,-0.09038111567497253,9.893440246582031,0.005195809528231621,0.008489305153489113,-0.1232018917798996,-0.9923273324966431
1789657496331637041,1789657496334608339,0.011706200428307056,-0.03405439853668213,0.0904569998383522,0.07003039866685867,-0.09038111567497253,9.893440246582031,0.005195809528231621,0.008489305153489113,-0.1232018917798996,-0.9923273324966431
1789657496335069068,1789657496347202865,0.012770400382578373,-0.03405439853668213,0.08939280360937119,0.14484919607639313,-0.10354921966791153,9.967061042785645,0.004261871799826622,0.007906107231974602,-0.1241423636674881,-0.9922194480895996
1789657496347873349,1789657496349892725,0.012770400382578373,-0.03405439853668213,0.08939280360937119,0.14484919607639313,-0.10354921966791153,9.967061042785645,0.004261871799826622,0.007906107231974602,-0.1241423636674881,-0.9922194480895996
1789657496350934774,1789657496354745811,0.012770400382578373,-0.03405439853668213,0.08939280360937119,0.14484919607639313,-0.10354921966791153,9.967061042785645,0.004261871799826622,0.007906107231974602,-0.1241423636674881,-0.9922194480895996
1789657496354737292,1789657496358090840,0.012770400382578373,-0.03405439853668213,0.08939280360937119,0.14484919607639313,-0.10354921966791153,9.967061042785645,0.004261871799826622,0.007906107231974602,-0.1241423636674881,-0.9922194480895996
1789657496358740824,1789657496368015913,0.011706200428307056,-0.03405439853668213,0.09258539974689484,0.09576806426048279,-0.10594342648983002,9.831789016723633,0.0038039882201701403,0.006565592251718044,-0.1250995397567749,-0.9921109080314636
1789657496368648268,1789657496371250834,0.011706200428307056,-0.03405439853668213,0.09258539974689484,0.09576806426048279,-0.10594342648983002,9.831789016723633,0.0038039882201701403,0.006565592251718044,-0.1250995397567749,-0.9921109080314636
1789657496373502427,1789657496374875412,0.011706200428307056,-0.03405439853668213,0.09258539974689484,0.09576806426048279,-0.10594342648983002,9.831789016723633,0.0038039882201701403,0.006565592251718044,-0.1250995397567749,-0.9921109080314636
1789657496378538471,1789657496389498277,0.011706200428307056,-0.03405439853668213,0.09152120351791382,0.18614917993545532,-0.08379705995321274,9.91977596282959,0.00398127781227231,0.008621130138635635,-0.12605568766593933,-0.9919734001159668
1789657496389233376,1789657496392515093,0.011706200428307056,-0.03405439853668213,0.09152120351791382,0.18614917993545532,-0.08379705995321274,9.91977596282959,0.00398127781227231,0.008621130138635635,-0.12605568766593933,-0.9919734001159668
1789657496394074814,1789657496396158430,0.011706200428307056,-0.03405439853668213,0.09152120351791382,0.18614917993545532,-0.08379705995321274,9.91977596282959,0.00398127781227231,0.008621130138635635,-0.12605568766593933,-0.9919734001159668
1789657496398533020,1789657496410053294,0.012770400382578373,-0.03405439853668213,0.0904569998383522,0.11312603205442429,-0.09277531504631042,9.795876502990723,0.004515133332461119,0.007441375870257616,-0.12701083719730377,-0.9918587803840637
1789657496411243469,1789657496415544475,0.012770400382578373,-0.03405439853668213,0.0904569998383522,0.11312603205442429,-0.09277531504631042,9.795876502990723,0.004515133332461119,0.007441375870257616,-0.12701083719730377,-0.9918587803840637
1789657496415491569,1789657496419015427,0.012770400382578373,-0.03405439853668213,0.0904569998383522,0.11312603205442429,-0.09277531504631042,9.795876502990723,0.004515133332461119,0.007441375870257616,-0.12701083719730377,-0.9918587803840637
1789657496420942973,1789657496431923483,0.012770400382578373,-0.03299019858241081,0.09152120351791382,0.028131868690252304,-0.0694318488240242,9.791088104248047,0.0030618426389992237,0.006625538691878319,-0.12795522809028625,-0.9917488098144531
1789657496431627472,1789657496433784456,0.012770400382578373,-0.03299019858241081,0.09152120351791382,0.028131868690252304,-0.0694318488240242,9.791088104248047,0.0030618426389992237,0.006625538691878319,-0.12795522809028625,-0.9917488098144531
1789657496434495605,1789657496437947299,0.012770400382578373,-0.03299019858241081,0.09152120351791382,0.028131868690252304,-0.0694318488240242,9.791088104248047,0.0030618426389992237,0.006625538691878319,-0.12795522809028625,-0.9917488098144531
1789657496438780927,1789657496451983030,0.012770400382578373,-0.03299019858241081,0.09152120351791382,0.10714052617549896,-0.07721300423145294,9.892841339111328,0.0034502395428717136,0.007483725436031818,-0.12891365587711334,-0.9916172027587891
1789657496453513049,1789657496457127609,0.012770400382578373,-0.03299019858241081,0.09152120351791382,0.10714052617549896,-0.07721300423145294,9.892841339111328,0.0034502395428717136,0.007483725436031818,-0.12891365587711334,-0.9916172027587891
1789657496458529908,1789657496460944275,0.012770400382578373,-0.03299019858241081,0.09152120351791382,0.10714052617549896,-0.07721300423145294,9.892841339111328,0.0034502395428717136,0.007483725436031818,-0.12891365587711334,-0.9916172027587891
1789657496463511119,1789657496472922149,0.011706200428307056,-0.031925998628139496,0.08939280360937119,0.08379705995321274,-0.10175357013940811,9.861716270446777,0.0031106346286833286,0.006158589385449886,-0.12984812259674072,-0.9915056228637695
1789657496473262752,1789657496474885823,0.011706200428307056,-0.031925998628139496,0.08939280360937119,0.08379705995321274,-0.10175357013940811,9.861716270446777,0.0031106346286833286,0.006158589385449886,-0.12984812259674072,-0.9915056228637695
1789657496476112645,1789657496479855073,0.011706200428307056,-0.031925998628139496,0.08939280360937119,0.08379705995321274,-0.10175357013940811,9.861716270446777,0.0031106346286833286,0.006158589385449886,-0.12984812259674072,-0.9915056228637695
1789657496480781791,1789657496494167890,0.012770400382578373,-0.035118598490953445,0.08939280360937119,0.14844051003456116,-0.08140285313129425,9.81263542175293,0.0031231732573360205,0.008112464100122452,-0.13076789677143097,-0.9913705587387085
1789657496495044239,1789657496498050054,0.012770400382578373,-0.035118598490953445,0.08939280360937119,0.14844051003456116,-0.08140285313129425,9.81263542175293,0.0031231732573360205,0.008112464100122452,-0.13076789677143097,-0.9913705587387085
1789657496499193008,1789657496502967046,0.012770400382578373,-0.035118598490953445,0.08939280360937119,0.14844051003456116,-0.08140285313129425,9.81263542175293,0.0031231732573360205,0.008112464100122452,-0.13076789677143097,-0.9913705587387085
1789657496514848570,1789657496516738747,0.01383460033684969,-0.03299019858241081,0.0904569998383522,0.14185644686222076,-0.10534487664699554,9.862914085388184,0.004291200544685125,0.007990350015461445,-0.13170842826366425,-0.9912425875663757
1789657496518773382,1789657496523186978,0.01383460033684969,-0.03299019858241081,0.0904569998383522,0.14185644686222076,-0.10534487664699554,9.862914085388184,0.004291200544685125,0.007990350015461445,-0.13170842826366425,-0.9912425875663757
1789657496524075549,1789657496536563133,0.011706200428307056,-0.03299019858241081,0.09258539974689484,0.09516951441764832,-0.0694318488240242,9.834183692932129,0.004667219705879688,0.006960856728255749,-0.13267844915390015,-0.9911193251609802
1789657496535669025,1789657496538710284,0.011706200428307056,-0.03299019858241081,0.09258539974689484,0.09516951441764832,-0.0694318488240242,9.834183692932129,0.004667219705879688,0.006960856728255749,-0.13267844915390015,-0.9911193251609802
1789657496538851781,1789657496541757840,0.011706200428307056,-0.03299019858241081,0.09258539974689484,0.09516951441764832,-0.0694318488240242,9.834183692932129,0.004667219705879688,0.006960856728255749,-0.13267844915390015,-0.9911193251609802
1789657496543473872,1789657496556266504,0.009577799588441849,-0.03405439853668213,0.08939280360937119,0.12749123573303223,-0.12928688526153564,9.928753852844238,0.004974582698196173,0.008110789582133293,-0.13360925018787384,-0.9909840226173401
1789657496556178506,1789657496560414570,0.009577799588441849,-0.03405439853668213,0.08939280360937119,0.12749123573303223,-0.12928688526153564,9.928753852844238,0.004974582698196173,0.008110789582133293,-0.13360925018787384,-0.9909840226173401
1789657496560083522,1789657496563802450,0.009577799588441849,-0.03405439853668213,0.08939280360937119,0.12749123573303223,-0.12928688526153564,9.928753852844238,0.004974582698196173,0.008110789582133293,-0.13360925018787384,-0.9909840226173401
1789657496564080110,1789657496576930519,0.012770400382578373,-0.035118598490953445,0.08939280360937119,0.09277531504631042,-0.07960720360279083,9.877279281616211,0.005699291825294495,0.008331390097737312,-0.1345461905002594,-0.9908515214920044
1789657496578037769,1789657496582029561,0.012770400382578373,-0.035118598490953445,0.08939280360937119,0.09277531504631042,-0.07960720360279083,9.877279281616211,0.005699291825294495,0.008331390097737312,-0.1345461905002594,-0.9908515214920044
1789657496583025777,1789657496585865838,0.012770400382578373,-0.035118598490953445,0.08939280360937119,0.09277531504631042,-0.07960720360279083,9.877279281616211,0.005699291825294495,0.008331390097737312,-0.1345461905002594,-0.9908515214920044
1789657496586857536,1789657496598309423,0.012770400382578373,-0.03299019858241081,0.08939280360937119,0.14844051003456116,-0.10833762586116791,9.865906715393066,0.004875266924500465,0.008319810964167118,-0.13547544181346893,-0.9907293915748596
1789657496598967907,1789657496604432625,0.012770400382578373,-0.03299019858241081,0.08939280360937119,0.14844051003456116,-0.10833762586116791,9.865906715393066,0.004875266924500465,0.008319810964167118,-0.13547544181346893,-0.9907293915748596
1789657496606866362,1789657496618964974,0.011706200428307056,-0.03405439853668213,0.0904569998383522,0.17717091739177704,-0.1430535465478897,9.894637107849121,0.005988210905343294,0.008906752802431583,-0.13642556965351105,-0.9905878305435181
1789657496619717160,1789657496624102867,0.011706200428307056,-0.03405439853668213,0.0904569998383522,0.17717091739177704,-0.1430535465478897,9.894637107849121,0.005988210905343294,0.008906752802431583,-0.13642556965351105,-0.9905878305435181
1789657496625111065,1789657496628147806,0.011706200428307056,-0.03405439853668213,0.0904569998383522,0.17717091739177704,-0.1430535465478897,9.894637107849121,0.005988210905343294,0.008906752802431583,-0.13642556965351105,-0.9905878305435181
1789657496629221483,1789657496640258566,0.011706200428307056,-0.03405439853668213,0.0904569998383522,0.16160860657691956,-0.090979665517807,9.890446662902832,0.005165210925042629,0.008104698732495308,-0.13737177848815918,-0.9904685616493225
1789657496640923827,1789657496644400020,0.011706200428307056,-0.03405439853668213,0.0904569998383522,0.16160860657691956,-0.090979665517807,9.890446662902832,0.005165210925042629,0.008104698732495308,-0.13737177848815918,-0.9904685616493225
1789657496647097492,1789657496648868559,0.011706200428307056,-0.03405439853668213,0.0904569998383522,0.16160860657691956,-0.090979665517807,9.890446662902832,0.005165210925042629,0.008104698732495308,-0.13737177848815918,-0.9904685616493225
1789657496650480872,1789657496661259127,0.012770400382578373,-0.03299019858241081,0.0904569998383522,0.15801730751991272,-0.0999579206109047,9.962871551513672,0.003984470851719379,0.00899701751768589,-0.1382981538772583,-0.9903374910354614
1789657496662306657,1789657496665076145,0.012770400382578373,-0.03299019858241081,0.0904569998383522,0.15801730751991272,-0.0999579206109047,9.962871551513672,0.003984470851719379,0.00899701751768589,-0.1382981538772583,-0.9903374910354614
1789657496667295869,1789657496670222187,0.012770400382578373,-0.03299019858241081,0.0904569998383522,0.15801730751991272,-0.0999579206109047,9.962871551513672,0.003984470851719379,0.00899701751768589,-0.1382981538772583,-0.9903374910354614
1789657496672094641,1789657496681994455,0.012770400382578373,-0.031925998628139496,0.0904569998383522,0.12749123573303223,-0.12689268589019775,9.962871551513672,0.004458469804376364,0.007657824084162712,-0.13925747573375702,-0.9902122616767883
1789657496682569922,1789657496686926260,0.012770400382578373,-0.031925998628139496,0.0904569998383522,0.12749123573303223,-0.12689268589019775,9.962871551513672,0.004458469804376364,0.007657824084162712,-0.13925747573375702,-0.9902122616767883
1789657496688081584,1789657496690893923,0.012770400382578373,-0.031925998628139496,0.0904569998383522,0.12749123573303223,-0.12689268589019775,9.962871551513672,0.004458469804376364,0.007657824084162712,-0.13925747573375702,-0.9902122616767883
1789657496691935157,1789657496702007429,0.011706200428307056,-0.03086180053651333,0.0904569998383522,0.17178396880626678,-0.09576806426048279,9.949105262756348,0.0036352714523673058,0.0073756808415055275,-0.14019908010959625,-0.9900848865509033
1789657496704041195,1789657496707025696,0.011706200428307056,-0.03086180053651333,0.0904569998383522,0.17178396880626678,-0.09576806426048279,9.949105262756348,0.0036352714523673058,0.0073756808415055275,-0.14019908010959625,-0.9900848865509033
1789657496709066128,1789657496711809987,0.011706200428307056,-0.03086180053651333,0.0904569998383522,0.17178396880626678,-0.09576806426048279,9.949105262756348,0.0036352714523673058,0.0073756808415055275,-0.14019908010959625,-0.9900848865509033
1789657496713467965,1789657496723056545,0.011706200428307056,-0.03299019858241081,0.09152120351791382,0.2172738015651703,-0.13527239859104156,9.970054626464844,0.0046398211270570755,0.00929965265095234,-0.14114627242088318,-0.9899297952651978
1789657496723131840,1789657496726106712,0.011706200428307056,-0.03299019858241081,0.09152120351791382,0.2172738015651703,-0.13527239859104156,9.970054626464844,0.0046398211270570755,0.00929965265095234,-0.14114627242088318,-0.9899297952651978
1789657496727549343,1789657496730087522,0.011706200428307056,-0.03299019858241081,0.09152120351791382,0.2172738015651703,-0.13527239859104156,9.970054626464844,0.0046398211270570755,0.00929965265095234,-0.14114627242088318,-0.9899297952651978
1789657496731406934,1789657496743923388,0.012770400382578373,-0.029797600582242012,0.09258539974689484,0.16759411990642548,-0.09157821536064148,9.99339771270752,0.0039029279723763466,0.00860647577792406,-0.14211317896842957,-0.9898009896278381
1789657496744701721,1789657496747150624,0.012770400382578373,-0.029797600582242012,0.09258539974689484,0.16759411990642548,-0.09157821536064148,9.99339771270752,0.0039029279723763466,0.00860647577792406,-0.14211317896842957,-0.9898009896278381
1789657496748354336,1789657496751213025,0.012770400382578373,-0.029797600582242012,0.09258539974689484,0.16759411990642548,-0.09157821536064148,9.99339771270752,0.0039029279723763466,0.00860647577792406,-0.14211317896842957,-0.9898009896278381
1789657496753546857,1789657496766537188,0.012770400382578373,-0.031925998628139496,0.09152120351791382,0.19153612852096558,-0.090979665517807,9.964667320251465,0.0028021582402288914,0.00986562855541706,-0.14305917918682098,-0.9896566271781921
1789657496766073366,1789657496770006548,0.012770400382578373,-0.031925998628139496,0.09152120351791382,0.19153612852096558,-0.090979665517807,9.964667320251465,0.0028021582402288914,0.00986562855541706,-0.14305917918682098,-0.9896566271781921
1789657496771011505,1789657496774348109,0.012770400382578373,-0.031925998628139496,0.09152120351791382,0.19153612852096558,-0.090979665517807,9.964667320251465,0.0028021582402288914,0.00986562855541706,-0.14305917918682098,-0.9896566271781921
1789657496774544604,1789657496787113667,0.014898800291121006,-0.03299019858241081,0.09152120351791382,0.1496376097202301,-0.0628477931022644,9.98681354522705,0.0021898793056607246,0.008252529427409172,-0.14400875568389893,-0.9895352721214294
1789657496787042651,1789657496791604262,0.014898800291121006,-0.03299019858241081,0.09152120351791382,0.1496376097202301,-0.0628477931022644,9.98681354522705,0.0021898793056607246,0.008252529427409172,-0.14400875568389893,-0.9895352721214294
1789657496792121619,1789657496796507901,0.014898800291121006,-0.03299019858241081,0.09152120351791382,0.1496376097202301,-0.0628477931022644,9.98681354522705,0.0021898793056607246,0.008252529427409172,-0.14400875568389893,-0.9895352721214294
1789657496796140392,1789657496806911796,0.01383460033684969,-0.031925998628139496,0.0904569998383522,0.13587094843387604,-0.07841010391712189,9.947907447814941,0.002324626548215747,0.007331022061407566,-0.1449553221464157,-0.9894039630889893
1789657496807643296,1789657496812226907,0.01383460033684969,-0.031925998628139496,0.0904569998383522,0.13587094843387604,-0.07841010391712189,9.947907447814941,0.002324626548215747,0.007331022061407566,-0.1449553221464157,-0.9894039630889893
1789657496813854996,1789657496815963815,0.01383460033684969,-0.031925998628139496,0.0904569998383522,0.13587094843387604,-0.07841010391712189,9.947907447814941,0.002324626548215747,0.007331022061407566,-0.1449553221464157,-0.9894039630889893
1789657496818472291,1789657496828218683,0.012770400382578373,-0.031925998628139496,0.0904569998383522,0.2017114907503128,-0.10714052617549896,9.90481185913086,0.003446141956374049,0.0076597994193434715,-0.145898699760437,-0.9892595410346985
1789657496828304273,1789657496830199616,0.012770400382578373,-0.031925998628139496,0.0904569998383522,0.2017114907503128,-0.10714052617549896,9.90481185913086,0.003446141956374049,0.0076597994193434715,-0.145898699760437,-0.9892595410346985
1789657496830931358,1789657496836700532,0.012770400382578373,-0.031925998628139496,0.0904569998383522,0.2017114907503128,-0.10714052617549896,9.90481185913086,0.003446141956374049,0.0076597994193434715,-0.145898699760437,-0.9892595410346985
1789657496836822936,1789657496849295724,0.012770400382578373,-0.03086180053651333,0.09258539974689484,0.1538274586200714,-0.10235211998224258,9.875483512878418,0.003472323529422283,0.007229625713080168,-0.14686058461666107,-0.9891203045845032
1789657496849589995,1789657496853461511,0.012770400382578373,-0.03086180053651333,0.09258539974689484,0.1538274586200714,-0.10235211998224258,9.875483512878418,0.003472323529422283,0.007229625713080168,-0.14686058461666107,-0.9891203045845032
1789657496854268751,1789657496858306615,0.012770400382578373,-0.03086180053651333,0.09258539974689484,0.1538274586200714,-0.10235211998224258,9.875483512878418,0.003472323529422283,0.007229625713080168,-0.14686058461666107,-0.9891203045845032
1789657496859261000,1789657496871781064,0.01383460033684969,-0.03086180053651333,0.09152120351791382,0.1801636815071106,-0.10295066982507706,9.81024169921875,0.0024032804649323225,0.008411837741732597,-0.14779457449913025,-0.9889750480651855
1789657496871364834,1789657496874109489,0.01383460033684969,-0.03086180053651333,0.09152120351791382,0.1801636815071106,-0.10295066982507706,9.81024169921875,0.0024032804649323225,0.008411837741732597,-0.14779457449913025,-0.9889750480651855
1789657496875354977,1789657496878818689,0.01383460033684969,-0.03086180053651333,0.09152120351791382,0.1801636815071106,-0.10295066982507706,9.81024169921875,0.0024032804649323225,0.008411837741732597,-0.14779457449913025,-0.9889750480651855
1789657496879651854,1789657496891126129,0.012770400382578373,-0.03299019858241081,0.0904569998383522,0.18375498056411743,-0.08918400853872299,9.86770248413086,0.0029551186598837376,0.008215839974582195,-0.1487414836883545,-0.9888332486152649
1789657496892030089,1789657496895052811,0.012770400382578373,-0.03299019858241081,0.0904569998383522,0.18375498056411743,-0.08918400853872299,9.86770248413086,0.0029551186598837376,0.008215839974582195,-0.1487414836883545,-0.9888332486152649
1789657496896541164,1789657496900112706,0.012770400382578373,-0.03299019858241081,0.0904569998383522,0.18375498056411743,-0.08918400853872299,9.86770248413086,0.0029551186598837376,0.008215839974582195,-0.1487414836883545,-0.9888332486152649
1789657496902271061,1789657496910945201,0.011706200428307056,-0.031925998628139496,0.09152120351791382,0.07182604819536209,-0.058059390634298325,9.9185791015625,0.0038933069445192814,0.008270804770290852,-0.1496964991092682,-0.9886853694915771
1789657496913936869,1789657496917125088,0.011706200428307056,-0.031925998628139496,0.09152120351791382,0.07182604819536209,-0.058059390634298325,9.9185791015625,0.0038933069445192814,0.008270804770290852,-0.1496964991092682,-0.9886853694915771
1789657496918593755,1789657496921397669,0.011706200428307056,-0.031925998628139496,0.09152120351791382,0.07182604819536209,-0.058059390634298325,9.9185791015625,0.0038933069445192814,0.008270804770290852,-0.1496964991092682,-0.9886853694915771
1789657496923527283,1789657496932046890,0.01383460033684969,-0.03299019858241081,0.09152120351791382,0.16400282084941864,-0.09816227108240128,9.764751434326172,0.004283993039280176,0.008132243528962135,-0.15065644681453705,-0.9885390996932983
1789657496932105722,1789657496936132328,0.01383460033684969,-0.03299019858241081,0.09152120351791382,0.16400282084941864,-0.09816227108240128,9.764751434326172,0.004283993039280176,0.008132243528962135,-0.15065644681453705,-0.9885390996932983
1789657496936393766,1789657496939586817,0.01383460033684969,-0.03299019858241081,0.09152120351791382,0.16400282084941864,-0.09816227108240128,9.764751434326172,0.004283993039280176,0.008132243528962135,-0.15065644681453705,-0.9885390996932983
1789657496939707851,1789657496941838892,0.01383460033684969,-0.03299019858241081,0.09152120351791382,0.16400282084941864,-0.09816227108240128,9.764751434326172,0.004283993039280176,0.008132243528962135,-0.15065644681453705,-0.9885390996932983
1789657496943460630,1789657496953715898,0.012770400382578373,-0.031925998628139496,0.09152120351791382,0.09576806426048279,-0.10773907601833344,9.971251487731934,0.004998283460736275,0.006944427266716957,-0.15162481367588043,-0.9883968234062195
1789657496953389277,1789657496956345408,0.012770400382578373,-0.031925998628139496,0.09152120351791382,0.09576806426048279,-0.10773907601833344,9.971251487731934,0.004998283460736275,0.006944427266716957,-0.15162481367588043,-0.9883968234062195
1789657496958578539,1789657496960577768,0.012770400382578373,-0.031925998628139496,0.09152120351791382,0.09576806426048279,-0.10773907601833344,9.971251487731934,0.004998283460736275,0.006944427266716957,-0.15162481367588043,-0.9883968234062195
1789657496963645952,1789657496974571278,0.01383460033684969,-0.03299019858241081,0.09152120351791382,0.1496376097202301,-0.0694318488240242,9.822212219238281,0.0028908357489854097,0.008044879883527756,-0.1525685340166092,-0.9882516264915466
1789657496974141715,1789657496977542873,0.01383460033684969,-0.03299019858241081,0.09152120351791382,0.1496376097202301,-0.0694318488240242,9.822212219238281,0.0028908357489854097,0.008044879883527756,-0.1525685340166092,-0.9882516264915466
1789657496978524256,1789657496982271016,0.01383460033684969,-0.03299019858241081,0.09152120351791382,0.1496376097202301,-0.0694318488240242,9.822212219238281,0.0028908357489854097,0.008044879883527756,-0.1525685340166092,-0.9882516264915466
1789657496983506838,1789657496995480009,0.012770400382578373,-0.03405439853668213,0.09152120351791382,0.181959331035614,-0.090979665517807,9.8599214553833,0.003614395158365369,0.008188633248209953,-0.15352189540863037,-0.9881003499031067
1789657496995049316,1789657496998100519,0.012770400382578373,-0.03405439853668213,0.09152120351791382,0.181959331035614,-0.090979665517807,9.8599214553833,0.003614395158365369,0.008188633248209953,-0.15352189540863037,-0.9881003499031067
1789657496999582483,1789657497002256084,0.012770400382578373,-0.03405439853668213,0.09152120351791382,0.181959331035614,-0.090979665517807,9.8599214553833,0.003614395158365369,0.008188633248209953,-0.15352189540863037,-0.9881003499031067
1789657497004182093,1789657497016802377,0.011706200428307056,-0.03299019858241081,0.09152120351791382,0.06224924325942993,-0.0867898091673851,9.941922187805176,0.002481772331520915,0.007170872297137976,-0.15446783602237701,-0.9879642128944397
1789657497016730212,1789657497017998552,0.011706200428307056,-0.03299019858241081,0.09152120351791382,0.06224924325942993,-0.0867898091673851,9.941922187805176,0.002481772331520915,0.007170872297137976,-0.15446783602237701,-0.9879642128944397
1789657497019217059,1789657497023369902,0.011706200428307056,-0.03299019858241081,0.09152120351791382,0.06224924325942993,-0.0867898091673851,9.941922187805176,0.002481772331520915,0.007170872297137976,-0.15446783602237701,-0.9879642128944397
1789657497024149568,1789657497037148955,0.011706200428307056,-0.031925998628139496,0.09258539974689484,0.1280897855758667,-0.09576806426048279,9.797073364257812,0.0031037102453410625,0.008254336193203926,-0.15542642772197723,-0.9878037571907043
1789657497037719163,1789657497042597118,0.011706200428307056,-0.031925998628139496,0.09258539974689484,0.1280897855758667,-0.09576806426048279,9.797073364257812,0.0031037102453410625,0.008254336193203926,-0.15542642772197723,-0.9878037571907043
1789657497042561193,1789657497045898315,0.011706200428307056,-0.031925998628139496,0.09258539974689484,0.1280897855758667,-0.09576806426048279,9.797073364257812,0.0031037102453410625,0.008254336193203926,-0.15542642772197723,-0.9878037571907043
1789657497046672944,1789657497058076055,0.011706200428307056,-0.031925998628139496,0.09258539974689484,0.04967968538403511,-0.09816227108240128,9.77253246307373,0.0034378727432340384,0.006548852194100618,-0.15639078617095947,-0.987663209438324
1789657497059065549,1789657497063097821,0.011706200428307056,-0.031925998628139496,0.09258539974689484,0.04967968538403511,-0.09816227108240128,9.77253246307373,0.0034378727432340384,0.006548852194100618,-0.15639078617095947,-0.987663209438324
1789657497064272885,1789657497068486430,0.011706200428307056,-0.031925998628139496,0.09258539974689484,0.04967968538403511,-0.09816227108240128,9.77253246307373,0.0034378727432340384,0.006548852194100618,-0.15639078617095947,-0.987663209438324
1789657497068610594,1789657497079295018,0.011706200428307056,-0.03299019858241081,0.09152120351791382,0.13168108463287354,-0.07422025501728058,9.692925453186035,0.0026818569749593735,0.00735254492610693,-0.15733394026756287,-0.987510085105896
1789657497080208366,1789657497082998002,0.011706200428307056,-0.03299019858241081,0.09152120351791382,0.13168108463287354,-0.07422025501728058,9.692925453186035,0.0026818569749593735,0.00735254492610693,-0.15733394026756287,-0.987510085105896
1789657497083921738,1789657497087588667,0.011706200428307056,-0.03299019858241081,0.09152120351791382,0.13168108463287354,-0.07422025501728058,9.692925453186035,0.0026818569749593735,0.00735254492610693,-0.15733394026756287,-0.987510085105896
1789657497088511330,1789657497100085936,0.010641999542713165,-0.031925998628139496,0.09152120351791382,0.2059013396501541,-0.104147769510746,9.742006301879883,0.0036049617920070887,0.00923321582376957,-0.15828287601470947,-0.9873396754264832
1789657497100163879,1789657497102411694,0.010641999542713165,-0.031925998628139496,0.09152120351791382,0.2059013396501541,-0.104147769510746,9.742006301879883,0.0036049617920070887,0.00923321582376957,-0.15828287601470947,-0.9873396754264832
1789657497104357017,1789657497106901825,0.010641999542713165,-0.031925998628139496,0.09152120351791382,0.2059013396501541,-0.104147769510746,9.742006301879883,0.0036049617920070887,0.00923321582376957,-0.15828287601470947,-0.9873396754264832
1789657497108555933,1789657497121081090,0.010641999542713165,-0.03086180053651333,0.0904569998383522,0.08978256583213806,-0.07661445438861847,9.858723640441895,0.002976713702082634,0.007536666467785835,-0.1592252552509308,-0.9872046709060669
1789657497121187440,1789657497122945415,0.010641999542713165,-0.03086180053651333,0.0904569998383522,0.08978256583213806,-0.07661445438861847,9.858723640441895,0.002976713702082634,0.007536666467785835,-0.1592252552509308,-0.9872046709060669
1789657497124194496,1789657497128344543,0.010641999542713165,-0.03086180053651333,0.0904569998383522,0.08978256583213806,-0.07661445438861847,9.858723640441895,0.002976713702082634,0.007536666467785835,-0.1592252552509308,-0.9872046709060669
1789657497128990842,1789657497141102713,0.010641999542713165,-0.031925998628139496,0.0904569998383522,0.1280897855758667,-0.06763619929552078,9.90481185913086,0.00246675917878747,0.008524428121745586,-0.16015753149986267,-0.9870472550392151
1789657497141788177,1789657497145136336,0.010641999542713165,-0.031925998628139496,0.0904569998383522,0.1280897855758667,-0.06763619929552078,9.90481185913086,0.00246675917878747,0.008524428121745586,-0.16015753149986267,-0.9870472550392151
1789657497145589529,1789657497148170429,0.010641999542713165,-0.031925998628139496,0.0904569998383522,0.1280897855758667,-0.06763619929552078,9.90481185913086,0.00246675917878747,0.008524428121745586,-0.16015753149986267,-0.9870472550392151
1789657497148616214,1789657497151187652,0.010641999542713165,-0.031925998628139496,0.0904569998383522,0.1280897855758667,-0.06763619929552078,9.90481185913086,0.00246675917878747,0.008524428121745586,-0.16015753149986267,-0.9870472550392151
1789657497153544872,1789657497162067997,0.012770400382578373,-0.03086180053651333,0.09152120351791382,0.16759411990642548,-0.08080430328845978,9.832985877990723,0.0029929557349532843,0.008491067215800285,-0.16110660135746002,-0.9868915677070618
1789657497162503616,1789657497164970889,0.012770400382578373,-0.03086180053651333,0.09152120351791382,0.16759411990642548,-0.08080430328845978,9.832985877990723,0.0029929557349532843,0.008491067215800285,-0.16110660135746002,-0.9868915677070618
1789657497165983031,1789657497169211526,0.012770400382578373,-0.03086180053651333,0.09152120351791382,0.16759411990642548,-0.08080430328845978,9.832985877990723,0.0029929557349532843,0.008491067215800285,-0.16110660135746002,-0.9868915677070618
1789657497170195947,1789657497183132686,0.011706200428307056,-0.03299019858241081,0.0904569998383522,0.16160860657691956,-0.07062894850969315,9.906607627868652,0.003313387744128704,0.008237541653215885,-0.16205981373786926,-0.9867366552352905
1789657497184021368,1789657497188328689,0.011706200428307056,-0.03299019858241081,0.0904569998383522,0.16160860657691956,-0.07062894850969315,9.906607627868652,0.003313387744128704,0.008237541653215885,-0.16205981373786926,-0.9867366552352905
1789657497188855010,1789657497192017062,0.011706200428307056,-0.03299019858241081,0.0904569998383522,0.16160860657691956,-0.07062894850969315,9.906607627868652,0.003313387744128704,0.008237541653215885,-0.16205981373786926,-0.9867366552352905
1789657497193801907,1789657497204572089,0.012770400382578373,-0.031925998628139496,0.0904569998383522,0.2472013235092163,-0.132279634475708,9.971251487731934,0.003663641633465886,0.01054499763995409,-0.16298432648181915,-0.9865611791610718
1789657497205235887,1789657497209235753,0.012770400382578373,-0.031925998628139496,0.0904569998383522,0.2472013235092163,-0.132279634475708,9.971251487731934,0.003663641633465886,0.01054499763995409,-0.16298432648181915,-0.9865611791610718
1789657497210970007,1789657497214885948,0.012770400382578373,-0.031925998628139496,0.0904569998383522,0.2472013235092163,-0.132279634475708,9.971251487731934,0.003663641633465886,0.01054499763995409,-0.16298432648181915,-0.9865611791610718
1789657497214569622,1789657497225122124,0.010641999542713165,-0.03299019858241081,0.09258539974689484,0.1388636976480484,-0.104147769510746,9.928155899047852,0.0037152753211557865,0.008794670924544334,-0.16395717859268188,-0.9864168763160706
1789657497227053651,1789657497231026702,0.010641999542713165,-0.03299019858241081,0.09258539974689484,0.1388636976480484,-0.104147769510746,9.928155899047852,0.0037152753211557865,0.008794670924544334,-0.16395717859268188,-0.9864168763160706
1789657497231324510,1789657497234356787,0.010641999542713165,-0.03299019858241081,0.09258539974689484,0.1388636976480484,-0.104147769510746,9.928155899047852,0.0037152753211557865,0.008794670924544334,-0.16395717859268188,-0.9864168763160706
1789657497234925588,1789657497246611914,0.011706200428307056,-0.03086180053651333,0.09258539974689484,0.09457096457481384,-0.10534487664699554,9.998186111450195,0.002903049113228917,0.007621933240443468,-0.16491864621639252,-0.9862689971923828
1789657497246663950,1789657497247952807,0.011706200428307056,-0.03086180053651333,0.09258539974689484,0.09457096457481384,-0.10534487664699554,9.998186111450195,0.002903049113228917,0.007621933240443468,-0.16491864621639252,-0.9862689971923828
1789657497248761565,1789657497250938012,0.011706200428307056,-0.03086180053651333,0.09258539974689484,0.09457096457481384,-0.10534487664699554,9.998186111450195,0.002903049113228917,0.007621933240443468,-0.16491864621639252,-0.9862689971923828
1789657497253779128,1789657497267666252,0.012770400382578373,-0.03299019858241081,0.09258539974689484,0.2124854028224945,-0.09636661410331726,9.849146842956543,0.0032417073380202055,0.0073537142015993595,-0.16589146852493286,-0.9861068725585938
1789657497267234336,1789657497271299663,0.012770400382578373,-0.03299019858241081,0.09258539974689484,0.2124854028224945,-0.09636661410331726,9.849146842956543,0.0032417073380202055,0.0073537142015993595,-0.16589146852493286,-0.9861068725585938
1789657497270563440,1789657497274439309,0.012770400382578373,-0.03299019858241081,0.09258539974689484,0.2124854028224945,-0.09636661410331726,9.849146842956543,0.0032417073380202055,0.0073537142015993595,-0.16589146852493286,-0.9861068725585938
1789657497274830577,1789657497288470207,0.011706200428307056,-0.031925998628139496,0.09152120351791382,0.12988543510437012,-0.12509703636169434,9.953893661499023,0.003757061902433634,0.006674387026578188,-0.1668442338705063,-0.9859491586685181
1789657497289053174,1789657497293254275,0.011706200428307056,-0.031925998628139496,0.09152120351791382,0.12988543510437012,-0.12509703636169434,9.953893661499023,0.003757061902433634,0.006674387026578188,-0.1668442338705063,-0.9859491586685181
1789657497295011806,1789657497297154254,0.011706200428307056,-0.031925998628139496,0.09152120351791382,0.12988543510437012,-0.12509703636169434,9.953893661499023,0.003757061902433634,0.006674387026578188,-0.1668442338705063,-0.9859491586685181
1789657497298552627,1789657497308921745,0.011706200428307056,-0.03086180053651333,0.0904569998383522,0.17956513166427612,-0.10055647045373917,9.990405082702637,0.0024953042156994343,0.007814432494342327,-0.16777248680591583,-0.9857872724533081
1789657497312927573,1789657497316022904,0.011706200428307056,-0.03086180053651333,0.0904569998383522,0.17956513166427612,-0.10055647045373917,9.990405082702637,0.0024953042156994343,0.007814432494342327,-0.16777248680591583,-0.9857872724533081
1789657497317226468,1789657497333897320,0.012770400382578373,-0.029797600582242012,0.09152120351791382,0.18495208024978638,-0.12270283699035645,9.916783332824707,0.0024899975396692753,0.007300299126654863,-0.16872307658195496,-0.9856289029121399
1789657497330512236,1789657497334723281,0.012770400382578373,-0.029797600582242012,0.09152120351791382,0.18495208024978638,-0.12270283699035645,9.916783332824707,0.0024899975396692753,0.007300299126654863,-0.16872307658195496,-0.9856289029121399
1789657497336493905,1789657497339269355,0.012770400382578373,-0.029797600582242012,0.09152120351791382,0.18495208024978638,-0.12270283699035645,9.916783332824707,0.0024899975396692753,0.007300299126654863,-0.16872307658195496,-0.9856289029121399
1789657497340033540,1789657497350228773,0.012770400382578373,-0.03086180053651333,0.0904569998383522,0.1364694982767105,-0.09935937076807022,10.049661636352539,0.0036196711007505655,0.008113580755889416,-0.16966350376605988,-0.9854575991630554
1789657497351199064,1789657497355087469,0.012770400382578373,-0.03086180053651333,0.0904569998383522,0.1364694982767105,-0.09935937076807022,10.049661636352539,0.0036196711007505655,0.008113580755889416,-0.16966350376605988,-0.9854575991630554
1789657497356290977,1789657497361629439,0.012770400382578373,-0.03086180053651333,0.0904569998383522,0.1364694982767105,-0.09935937076807022,10.049661636352539,0.0036196711007505655,0.008113580755889416,-0.16966350376605988,-0.9854575991630554
1789657497361139969,1789657497371340869,0.012770400382578373,-0.03086180053651333,0.09152120351791382,0.19931729137897491,-0.0933738648891449,9.891644477844238,0.003248692024499178,0.007692424580454826,-0.17060630023479462,-0.9852994680404663
1789657497371894188,1789657497375053889,0.012770400382578373,-0.03086180053651333,0.09152120351791382,0.19931729137897491,-0.0933738648891449,9.891644477844238,0.003248692024499178,0.007692424580454826,-0.17060630023479462,-0.9852994680404663
1789657497375542414,1789657497378130277,0.012770400382578373,-0.03086180053651333,0.09152120351791382,0.19931729137897491,-0.0933738648891449,9.891644477844238,0.003248692024499178,0.007692424580454826,-0.17060630023479462,-0.9852994680404663
1789657497378629654,1789657497381066835,0.012770400382578373,-0.03086180053651333,0.09152120351791382,0.19931729137897491,-0.0933738648891449,9.891644477844238,0.003248692024499178,0.007692424580454826,-0.17060630023479462,-0.9852994680404663
1789657497383460869,1789657497392439557,0.012770400382578373,-0.03299019858241081,0.09152120351791382,0.16400282084941864,-0.08140285313129425,9.899425506591797,0.0032194762025028467,0.007305982522666454,-0.17155593633651733,-0.9851376414299011
1789657497392110787,1789657497397115313,0.012770400382578373,-0.03299019858241081,0.09152120351791382,0.16400282084941864,-0.08140285313129425,9.899425506591797,0.0032194762025028467,0.007305982522666454,-0.17155593633651733,-0.9851376414299011
1789657497396609863,1789657497400577951,0.012770400382578373,-0.03299019858241081,0.09152120351791382,0.16400282084941864,-0.08140285313129425,9.899425506591797,0.0032194762025028467,0.007305982522666454,-0.17155593633651733,-0.9851376414299011
1789657497400001928,1789657497413015481,0.012770400382578373,-0.03299019858241081,0.09258539974689484,0.14903905987739563,-0.11851298063993454,9.929352760314941,0.0034742560237646103,0.008814673870801926,-0.17251217365264893,-0.9849573969841003
1789657497415322683,1789657497418608863,0.012770400382578373,-0.03299019858241081,0.09258539974689484,0.14903905987739563,-0.11851298063993454,9.929352760314941,0.0034742560237646103,0.008814673870801926,-0.17251217365264893,-0.9849573969841003
1789657497419695077,1789657497422370567,0.012770400382578373,-0.03299019858241081,0.09258539974689484,0.14903905987739563,-0.11851298063993454,9.929352760314941,0.0034742560237646103,0.008814673870801926,-0.17251217365264893,-0.9849573969841003
1789657497424542736,1789657497435176180,0.011706200428307056,-0.03405439853668213,0.09152120351791382,0.14484919607639313,-0.11372458189725876,9.90241813659668,0.0040710363537073135,0.008136019110679626,-0.17346936464309692,-0.9847928285598755
1789657497434769320,1789657497438124608,0.011706200428307056,-0.03405439853668213,0.09152120351791382,0.14484919607639313,-0.11372458189725876,9.90241813659668,0.0040710363537073135,0.008136019110679626,-0.17346936464309692,-0.9847928285598755
1789657497438629781,1789657497441753575,0.011706200428307056,-0.03405439853668213,0.09152120351791382,0.14484919607639313,-0.11372458189725876,9.90241813659668,0.0040710363537073135,0.008136019110679626,-0.17346936464309692,-0.9847928285598755
1789657497443462089,1789657497455377687,0.012770400382578373,-0.03299019858241081,0.09152120351791382,0.01735796220600605,-0.11432313174009323,9.88506031036377,0.0027927232440561056,0.007703864481300116,-0.1744125932455063,-0.9846342206001282
1789657497455272004,1789657497457618688,0.012770400382578373,-0.03299019858241081,0.09152120351791382,0.01735796220600605,-0.11432313174009323,9.88506031036377,0.0027927232440561056,0.007703864481300116,-0.1744125932455063,-0.9846342206001282
1789657497459144539,1789657497462095615,0.012770400382578373,-0.03299019858241081,0.09152120351791382,0.01735796220600605,-0.11432313174009323,9.88506031036377,0.0027927232440561056,0.007703864481300116,-0.1744125932455063,-0.9846342206001282
1789657497463513581,1789657497476895921,0.012770400382578373,-0.03618279844522476,0.0904569998383522,0.16101005673408508,-0.10354921966791153,9.88506031036377,0.0030258146580308676,0.0073191761039197445,-0.1753557026386261,-0.984468936920166
1789657497476071571,1789657497477876286,0.012770400382578373,-0.03618279844522476,0.0904569998383522,0.16101005673408508,-0.10354921966791153,9.88506031036377,0.0030258146580308676,0.0073191761039197445,-0.1753557026386261,-0.984468936920166
1789657497478729376,1789657497483038474,0.012770400382578373,-0.03618279844522476,0.0904569998383522,0.16101005673408508,-0.10354921966791153,9.88506031036377,0.0030258146580308676,0.0073191761039197445,-0.1753557026386261,-0.984468936920166
1789657497483894991,1789657497496245930,0.011706200428307056,-0.031925998628139496,0.0904569998383522,0.10953472554683685,-0.12030863016843796,9.8970308303833,0.0038776828441768885,0.00641460670158267,-0.17630207538604736,-0.9843031764030457
1789657497497088798,1789657497499039732,0.011706200428307056,-0.031925998628139496,0.0904569998383522,0.10953472554683685,-0.12030863016843796,9.8970308303833,0.0038776828441768885,0.00641460670158267,-0.17630207538604736,-0.9843031764030457
1789657497500015060,1789657497504738796,0.011706200428307056,-0.031925998628139496,0.0904569998383522,0.10953472554683685,-0.12030863016843796,9.8970308303833,0.0038776828441768885,0.00641460670158267,-0.17630207538604736,-0.9843031764030457
1789657497506161651,1789657497517300842,0.011706200428307056,-0.03299019858241081,0.0904569998383522,0.10354921966791153,-0.08858545869588852,9.856329917907715,0.0032826950773596764,0.0073275696486234665,-0.17723466455936432,-0.9841315150260925
1789657497517765256,1789657497521593829,0.011706200428307056,-0.03299019858241081,0.0904569998383522,0.10354921966791153,-0.08858545869588852,9.856329917907715,0.0032826950773596764,0.0073275696486234665,-0.17723466455936432,-0.9841315150260925
1789657497522238925,1789657497524814028,0.011706200428307056,-0.03299019858241081,0.0904569998383522,0.10354921966791153,-0.08858545869588852,9.856329917907715,0.0032826950773596764,0.0073275696486234665,-0.17723466455936432,-0.9841315150260925
1789657497525153705,1789657497538044076,0.011706200428307056,-0.03299019858241081,0.09152120351791382,0.11252747476100922,-0.11312603205442429,9.938929557800293,0.003960459027439356,0.006492471322417259,-0.17818213999271393,-0.9839637279510498
1789657497538851538,1789657497540857396,0.011706200428307056,-0.03299019858241081,0.09152120351791382,0.11252747476100922,-0.11312603205442429,9.938929557800293,0.003960459027439356,0.006492471322417259,-0.17818213999271393,-0.9839637279510498
1789657497543465980,1789657497545033831,0.011706200428307056,-0.03299019858241081,0.09152120351791382,0.11252747476100922,-0.11312603205442429,9.938929557800293,0.003960459027439356,0.006492471322417259,-0.17818213999271393,-0.9839637279510498
1789657497548554393,1789657497559780730,0.01383460033684969,-0.031925998628139496,0.09258539974689484,0.050876785069704056,-0.104147769510746,9.879075050354004,0.0031018450390547514,0.0071833450347185135,-0.17912939190864563,-0.9837900400161743
1789657497559528533,1789657497562078896,0.01383460033684969,-0.031925998628139496,0.09258539974689484,0.050876785069704056,-0.104147769510746,9.879075050354004,0.0031018450390547514,0.0071833450347185135,-0.17912939190864563,-0.9837900400161743
1789657497564136568,1789657497566889242,0.01383460033684969,-0.031925998628139496,0.09258539974689484,0.050876785069704056,-0.104147769510746,9.879075050354004,0.0031018450390547514,0.0071833450347185135,-0.17912939190864563,-0.9837900400161743
1789657497568641995,1789657497580697757,0.01383460033684969,-0.03405439853668213,0.09152120351791382,0.15322890877723694,-0.09696516394615173,9.93474006652832,0.0038519464433193207,0.007940747775137424,-0.1800767332315445,-0.9836085438728333
1789657497580290378,1789657497582110778,0.01383460033684969,-0.03405439853668213,0.09152120351791382,0.15322890877723694,-0.09696516394615173,9.93474006652832,0.0038519464433193207,0.007940747775137424,-0.1800767332315445,-0.9836085438728333
1789657497583867938,1789657497587482239,0.01383460033684969,-0.03405439853668213,0.09152120351791382,0.15322890877723694,-0.09696516394615173,9.93474006652832,0.0038519464433193207,0.007940747775137424,-0.1800767332315445,-0.9836085438728333
1789657497588671895,1789657497602218935,0.011706200428307056,-0.03299019858241081,0.09152120351791382,0.05506663769483566,-0.09816227108240128,9.803657531738281,0.0029425404500216246,0.006703037302941084,-0.18101973831653595,-0.9834478497505188
1789657497601868332,1789657497606208374,0.011706200428307056,-0.03299019858241081,0.09152120351791382,0.05506663769483566,-0.09816227108240128,9.803657531738281,0.0029425404500216246,0.006703037302941084,-0.18101973831653595,-0.9834478497505188
1789657497607974942,1789657497609928506,0.011706200428307056,-0.03299019858241081,0.09152120351791382,0.05506663769483566,-0.09816227108240128,9.803657531738281,0.0029425404500216246,0.006703037302941084,-0.18101973831653595,-0.9834478497505188
1789657497610701913,1789657497622153318,0.011706200428307056,-0.03299019858241081,0.0904569998383522,0.10235211998224258,-0.08140285313129425,9.86111831665039,0.0026245147455483675,0.007703779730945826,-0.18194662034511566,-0.9832703471183777
1789657497623137017,1789657497627495151,0.011706200428307056,-0.03299019858241081,0.0904569998383522,0.10235211998224258,-0.08140285313129425,9.86111831665039,0.0026245147455483675,0.007703779730945826,-0.18194662034511566,-0.9832703471183777
1789657497626949923,1789657497629453399,0.011706200428307056,-0.03299019858241081,0.0904569998383522,0.10235211998224258,-0.08140285313129425,9.86111831665039,0.0026245147455483675,0.007703779730945826,-0.18194662034511566,-0.9832703471183777
1789657497630329359,1789657497643554333,0.010641999542713165,-0.031925998628139496,0.09152120351791382,0.13168108463287354,-0.10115502029657364,9.846753120422363,0.0030991542153060436,0.007062308024615049,-0.18290022015571594,-0.9830968379974365
1789657497643995230,1789657497646945676,0.010641999542713165,-0.031925998628139496,0.09152120351791382,0.13168108463287354,-0.10115502029657364,9.846753120422363,0.0030991542153060436,0.007062308024615049,-0.18290022015571594,-0.9830968379974365
1789657497648618987,1789657497652026145,0.010641999542713165,-0.031925998628139496,0.09152120351791382,0.13168108463287354,-0.10115502029657364,9.846753120422363,0.0030991542153060436,0.007062308024615049,-0.18290022015571594,-0.9830968379974365
1789657497653573792,1789657497664592486,0.011706200428307056,-0.03299019858241081,0.0904569998383522,0.03232172131538391,-0.0586579404771328,9.841365814208984,0.0018098406726494431,0.0073534222319722176,-0.18381953239440918,-0.9829264879226685
1789657497664289827,1789657497666905096,0.011706200428307056,-0.03299019858241081,0.0904569998383522,0.03232172131538391,-0.0586579404771328,9.841365814208984,0.0018098406726494431,0.0073534222319722176,-0.18381953239440918,-0.9829264879226685
1789657497668752162,1789657497671817328,0.011706200428307056,-0.03299019858241081,0.0904569998383522,0.03232172131538391,-0.0586579404771328,9.841365814208984,0.0018098406726494431,0.0073534222319722176,-0.18381953239440918,-0.9829264879226685
1789657497673466028,1789657497685527234,0.011706200428307056,-0.03405439853668213,0.09258539974689484,0.1215057373046875,-0.08559270948171616,9.860519409179688,0.0026917308568954468,0.008143278770148754,-0.1847703456878662,-0.9827399253845215
1789657497685260722,1789657497689240865,0.011706200428307056,-0.03405439853668213,0.09258539974689484,0.1215057373046875,-0.08559270948171616,9.860519409179688,0.0026917308568954468,0.008143278770148754,-0.1847703456878662,-0.9827399253845215
1789657497690165417,1789657497694438461,0.011706200428307056,-0.03405439853668213,0.09258539974689484,0.1215057373046875,-0.08559270948171616,9.860519409179688,0.0026917308568954468,0.008143278770148754,-0.1847703456878662,-0.9827399253845215
1789657497694867617,1789657497705129996,0.012770400382578373,-0.03299019858241081,0.09152120351791382,0.10714052617549896,-0.11252747476100922,9.879075050354004,0.0034313099458813667,0.006873409263789654,-0.18572571873664856,-0.9825671315193176
1789657497705741833,1789657497708075683,0.012770400382578373,-0.03299019858241081,0.09152120351791382,0.10714052617549896,-0.11252747476100922,9.879075050354004,0.0034313099458813667,0.006873409263789654,-0.18572571873664856,-0.9825671315193176
1789657497709979155,1789657497711921738,0.012770400382578373,-0.03299019858241081,0.09152120351791382,0.10714052617549896,-0.11252747476100922,9.879075050354004,0.0034313099458813667,0.006873409263789654,-0.18572571873664856,-0.9825671315193176
1789657497713392757,1789657497726732172,0.011706200428307056,-0.03299019858241081,0.08832859992980957,0.076015904545784,-0.08200141042470932,9.850942611694336,0.00388512946665287,0.007672603707760572,-0.18664830923080444,-0.9823847413063049
1789657497726328830,1789657497729182594,0.011706200428307056,-0.03299019858241081,0.08832859992980957,0.076015904545784,-0.08200141042470932,9.850942611694336,0.00388512946665287,0.007672603707760572,-0.18664830923080444,-0.9823847413063049
1789657497729947390,1789657497733405194,0.011706200428307056,-0.03299019858241081,0.08832859992980957,0.076015904545784,-0.08200141042470932,9.850942611694336,0.00388512946665287,0.007672603707760572,-0.18664830923080444,-0.9823847413063049
1789657497734067919,1789657497747197524,0.011706200428307056,-0.03299019858241081,0.0904569998383522,0.17717091739177704,-0.1107318252325058,9.871891975402832,0.003876718459650874,0.00729406950995326,-0.18757428228855133,-0.9822112917900085
1789657497748125002,1789657497752172255,0.011706200428307056,-0.03299019858241081,0.0904569998383522,0.17717091739177704,-0.1107318252325058,9.871891975402832,0.003876718459650874,0.00729406950995326,-0.18757428228855133,-0.9822112917900085
1789657497754323406,1789657497757053673,0.011706200428307056,-0.03299019858241081,0.0904569998383522,0.17717091739177704,-0.1107318252325058,9.871891975402832,0.003876718459650874,0.00729406950995326,-0.18757428228855133,-0.9822112917900085
1789657497758432602,1789657497768665889,0.011706200428307056,-0.031925998628139496,0.09152120351791382,0.10235211998224258,-0.0933738648891449,9.817423820495605,0.002774529391899705,0.0075611937791109085,-0.18849916756153107,-0.9820359349250793
1789657497768879773,1789657497773196112,0.011706200428307056,-0.031925998628139496,0.09152120351791382,0.10235211998224258,-0.0933738648891449,9.817423820495605,0.002774529391899705,0.0075611937791109085,-0.18849916756153107,-0.9820359349250793
1789657497773828207,1789657497777154237,0.011706200428307056,-0.031925998628139496,0.09152120351791382,0.10235211998224258,-0.0933738648891449,9.817423820495605,0.002774529391899705,0.0075611937791109085,-0.18849916756153107,-0.9820359349250793
1789657497778471909,1789657497789396624,0.011706200428307056,-0.03405439853668213,0.09152120351791382,0.16579847037792206,-0.07900865375995636,9.957484245300293,0.002390476642176509,0.009051928296685219,-0.18944109976291656,-0.9818429946899414
1789657497789291200,1789657497791071194,0.011706200428307056,-0.03405439853668213,0.09152120351791382,0.16579847037792206,-0.07900865375995636,9.957484245300293,0.002390476642176509,0.009051928296685219,-0.18944109976291656,-0.9818429946899414
1789657497793488394,1789657497797068733,0.011706200428307056,-0.03405439853668213,0.09152120351791382,0.16579847037792206,-0.07900865375995636,9.957484245300293,0.002390476642176509,0.009051928296685219,-0.18944109976291656,-0.9818429946899414
1789657497798496161,1789657497810095211,0.011706200428307056,-0.03405439853668213,0.09152120351791382,0.10534487664699554,-0.07003039866685867,9.869498252868652,0.0032091455068439245,0.008106793276965618,-0.19040046632289886,-0.9816634654998779
1789657497811451955,1789657497814224999,0.011706200428307056,-0.03405439853668213,0.09152120351791382,0.10534487664699554,-0.07003039866685867,9.869498252868652,0.0032091455068439245,0.008106793276965618,-0.19040046632289886,-0.9816634654998779
1789657497814742171,1789657497817194871,0.011706200428307056,-0.03405439853668213,0.09152120351791382,0.10534487664699554,-0.07003039866685867,9.869498252868652,0.0032091455068439245,0.008106793276965618,-0.19040046632289886,-0.9816634654998779
1789657497818503728,1789657497831822662,0.009577799588441849,-0.031925998628139496,0.09258539974689484,0.12210428714752197,-0.08499415963888168,9.851541519165039,0.003933520056307316,0.007934283465147018,-0.19136200845241547,-0.9814752340316772
1789657497831334470,1789657497834107680,0.009577799588441849,-0.031925998628139496,0.09258539974689484,0.12210428714752197,-0.08499415963888168,9.851541519165039,0.003933520056307316,0.007934283465147018,-0.19136200845241547,-0.9814752340316772
1789657497835492554,1789657497838185525,0.009577799588441849,-0.031925998628139496,0.09258539974689484,0.12210428714752197,-0.08499415963888168,9.851541519165039,0.003933520056307316,0.007934283465147018,-0.19136200845241547,-0.9814752340316772
1789657497839018393,1789657497851333796,0.011706200428307056,-0.03299019858241081,0.09152120351791382,0.14903905987739563,-0.12689268589019775,9.874286651611328,0.0031837860587984324,0.008792087435722351,-0.19229930639266968,-0.9812873601913452
1789657497851895023,1789657497854397036,0.011706200428307056,-0.03299019858241081,0.09152120351791382,0.14903905987739563,-0.12689268589019775,9.874286651611328,0.0031837860587984324,0.008792087435722351,-0.19229930639266968,-0.9812873601913452
1789657497855105630,1789657497859158957,0.011706200428307056,-0.03299019858241081,0.09152120351791382,0.14903905987739563,-0.12689268589019775,9.874286651611328,0.0031837860587984324,0.008792087435722351,-0.19229930639266968,-0.9812873601913452
1789657497859766609,1789657497872290544,0.01383460033684969,-0.031925998628139496,0.09258539974689484,0.16639702022075653,-0.09217676520347595,9.850343704223633,0.003050856292247772,0.008394998498260975,-0.1932460069656372,-0.9811052083969116
1789657497872899325,1789657497875275860,0.01383460033684969,-0.031925998628139496,0.09258539974689484,0.16639702022075653,-0.09217676520347595,9.850343704223633,0.003050856292247772,0.008394998498260975,-0.1932460069656372,-0.9811052083969116
1789657497875687702,1789657497878992769,0.01383460033684969,-0.031925998628139496,0.09258539974689484,0.16639702022075653,-0.09217676520347595,9.850343704223633,0.003050856292247772,0.008394998498260975,-0.1932460069656372,-0.9811052083969116
1789657497879785861,1789657497881991807,0.01383460033684969,-0.031925998628139496,0.09258539974689484,0.16639702022075653,-0.09217676520347595,9.850343704223633,0.003050856292247772,0.008394998498260975,-0.1932460069656372,-0.9811052083969116
1789657497884005536,1789657497893273476,0.012770400382578373,-0.031925998628139496,0.09364960342645645,0.12689268589019775,-0.07841010391712189,9.895833969116211,0.002143356716260314,0.009097568690776825,-0.19420233368873596,-0.9809125661849976
1789657497893418732,1789657497897645036,0.012770400382578373,-0.031925998628139496,0.09364960342645645,0.12689268589019775,-0.07841010391712189,9.895833969116211,0.002143356716260314,0.009097568690776825,-0.19420233368873596,-0.9809125661849976
1789657497898470183,1789657497902586526,0.012770400382578373,-0.031925998628139496,0.09364960342645645,0.12689268589019775,-0.07841010391712189,9.895833969116211,0.002143356716260314,0.009097568690776825,-0.19420233368873596,-0.9809125661849976
1789657497904011492,1789657497914136226,0.01383460033684969,-0.03299019858241081,0.09152120351791382,0.12090718746185303,-0.12330138683319092,9.939528465270996,0.0032672653906047344,0.007909072563052177,-0.19517220556735992,-0.9807272553443909
1789657497914404942,1789657497917903689,0.01383460033684969,-0.03299019858241081,0.09152120351791382,0.12090718746185303,-0.12330138683319092,9.939528465270996,0.0032672653906047344,0.007909072563052177,-0.19517220556735992,-0.9807272553443909
1789657497918952423,1789657497922763608,0.01383460033684969,-0.03299019858241081,0.09152120351791382,0.12090718746185303,-0.12330138683319092,9.939528465270996,0.0032672653906047344,0.007909072563052177,-0.19517220556735992,-0.9807272553443909
1789657497923516034,1789657497937873498,0.011706200428307056,-0.03086180053651333,0.09258539974689484,0.12988543510437012,-0.08439560979604721,9.869498252868652,0.002268831478431821,0.00839343760162592,-0.19611306488513947,-0.9805383682250977
1789657497936160725,1789657497940324383,0.011706200428307056,-0.03086180053651333,0.09258539974689484,0.12988543510437012,-0.08439560979604721,9.869498252868652,0.002268831478431821,0.00839343760162592,-0.19611306488513947,-0.9805383682250977
1789657497941280600,1789657497944271453,0.011706200428307056,-0.03086180053651333,0.09258539974689484,0.12988543510437012,-0.08439560979604721,9.869498252868652,0.002268831478431821,0.00839343760162592,-0.19611306488513947,-0.9805383682250977
1789657497945375333,1789657497956264808,0.011706200428307056,-0.031925998628139496,0.09152120351791382,0.18495208024978638,-0.1412578970193863,9.925163269042969,0.003922201227396727,0.00922013446688652,-0.1970667988061905,-0.980334460735321
1789657497957347597,1789657497961404387,0.011706200428307056,-0.031925998628139496,0.09152120351791382,0.18495208024978638,-0.1412578970193863,9.925163269042969,0.003922201227396727,0.00922013446688652,-0.1970667988061905,-0.980334460735321
1789657497962443232,1789657497965086371,0.011706200428307056,-0.031925998628139496,0.09152120351791382,0.18495208024978638,-0.1412578970193863,9.925163269042969,0.003922201227396727,0.00922013446688652,-0.1970667988061905,-0.980334460735321
1789657497966215676,1789657497977359534,0.01383460033684969,-0.031925998628139496,0.09258539974689484,0.12629413604736328,-0.12389993667602539,9.882067680358887,0.004188068676739931,0.00786179956048727,-0.19803251326084137,-0.9801505208015442
1789657497977972093,1789657497982912269,0.01383460033684969,-0.031925998628139496,0.09258539974689484,0.12629413604736328,-0.12389993667602539,9.882067680358887,0.004188068676739931,0.00786179956048727,-0.19803251326084137,-0.9801505208015442
1789657497984273717,1789657497987161276,0.01383460033684969,-0.031925998628139496,0.09258539974689484,0.12629413604736328,-0.12389993667602539,9.882067680358887,0.004188068676739931,0.00786179956048727,-0.19803251326084137,-0.9801505208015442
1789657497988461485,1789657497998341633,0.01383460033684969,-0.03086180053651333,0.09364960342645645,0.1304839849472046,-0.08858545869588852,9.906009674072266,0.003044739132747054,0.008502712473273277,-0.19898924231529236,-0.9799556732177734
1789657497998550942,1789657498000285104,0.01383460033684969,-0.03086180053651333,0.09364960342645645,0.1304839849472046,-0.08858545869588852,9.906009674072266,0.003044739132747054,0.008502712473273277,-0.19898924231529236,-0.9799556732177734
1789657498003753667,1789657498007549463,0.01383460033684969,-0.03086180053651333,0.09364960342645645,0.1304839849472046,-0.08858545869588852,9.906009674072266,0.003044739132747054,0.008502712473273277,-0.19898924231529236,-0.9799556732177734
1789657498008518329,1789657498019987308,0.011706200428307056,-0.031925998628139496,0.09152120351791382,0.12928688526153564,-0.09636661410331726,9.913191795349121,0.003815412987023592,0.00753118796274066,-0.19995234906673431,-0.9797647595405579
1789657498019560170,1789657498021120299,0.011706200428307056,-0.031925998628139496,0.09152120351791382,0.12928688526153564,-0.09636661410331726,9.913191795349121,0.003815412987023592,0.00753118796274066,-0.19995234906673431,-0.9797647595405579
1789657498023486648,1789657498028970533,0.011706200428307056,-0.031925998628139496,0.09152120351791382,0.12928688526153564,-0.09636661410331726,9.913191795349121,0.003815412987023592,0.00753118796274066,-0.19995234906673431,-0.9797647595405579
1789657498028525044,1789657498040543435,0.011706200428307056,-0.03299019858241081,0.09152120351791382,0.0933738648891449,-0.13946224749088287,9.938929557800293,0.003504786640405655,0.006578949745744467,-0.20089571177959442,-0.9795799255371094
1789657498040221998,1789657498042257171,0.011706200428307056,-0.03299019858241081,0.09152120351791382,0.0933738648891449,-0.13946224749088287,9.938929557800293,0.003504786640405655,0.006578949745744467,-0.20089571177959442,-0.9795799255371094
1789657498043581861,1789657498047532672,0.011706200428307056,-0.03299019858241081,0.09152120351791382,0.0933738648891449,-0.13946224749088287,9.938929557800293,0.003504786640405655,0.006578949745744467,-0.20089571177959442,-0.9795799255371094
1789657498048452408,1789657498062035836,0.012770400382578373,-0.031925998628139496,0.09258539974689484,0.16340425610542297,-0.11611878126859665,9.856329917907715,0.004517899826169014,0.007237856276333332,-0.20185306668281555,-0.9793742895126343
1789657498062329681,1789657498065173907,0.012770400382578373,-0.031925998628139496,0.09258539974689484,0.16340425610542297,-0.11611878126859665,9.856329917907715,0.004517899826169014,0.007237856276333332,-0.20185306668281555,-0.9793742895126343
1789657498066284232,1789657498070398372,0.012770400382578373,-0.031925998628139496,0.09258539974689484,0.16340425610542297,-0.11611878126859665,9.856329917907715,0.004517899826169014,0.007237856276333332,-0.20185306668281555,-0.9793742895126343
1789657498071522808,1789657498082018996,0.011706200428307056,-0.03086180053651333,0.09258539974689484,0.1711854189634323,-0.11671733111143112,9.925163269042969,0.004637411795556545,0.0068866484798491,-0.20281128585338593,-0.9791781902313232
1789657498083020082,1789657498086061545,0.011706200428307056,-0.03086180053651333,0.09258539974689484,0.1711854189634323,-0.11671733111143112,9.925163269042969,0.004637411795556545,0.0068866484798491,-0.20281128585338593,-0.9791781902313232
1789657498087552972,1789657498092316837,0.011706200428307056,-0.03086180053651333,0.09258539974689484,0.1711854189634323,-0.11671733111143112,9.925163269042969,0.004637411795556545,0.0068866484798491,-0.20281128585338593,-0.9791781902313232
1789657498091896366,1789657498103174534,0.011706200428307056,-0.03086180053651333,0.09152120351791382,0.15562310814857483,-0.08798690885305405,9.889848709106445,0.002903287298977375,0.0077828229404985905,-0.2037481814622879,-0.9789836406707764
1789657498103986403,1789657498107452485,0.011706200428307056,-0.03086180053651333,0.09152120351791382,0.15562310814857483,-0.08798690885305405,9.889848709106445,0.002903287298977375,0.0077828229404985905,-0.2037481814622879,-0.9789836406707764
1789657498108958356,1789657498112674802,0.011706200428307056,-0.03086180053651333,0.09152120351791382,0.15562310814857483,-0.08798690885305405,9.889848709106445,0.002903287298977375,0.0077828229404985905,-0.2037481814622879,-0.9789836406707764
1789657498113483431,1789657498123625738,0.011706200428307056,-0.03299019858241081,0.0904569998383522,0.1586158573627472,-0.10893617570400238,9.903017044067383,0.0037060717586427927,0.007798499893397093,-0.20469240844249725,-0.9787838459014893
1789657498123222933,1789657498126543371,0.011706200428307056,-0.03299019858241081,0.0904569998383522,0.1586158573627472,-0.10893617570400238,9.903017044067383,0.0037060717586427927,0.007798499893397093,-0.20469240844249725,-0.9787838459014893
1789657498127249205,1789657498130530866,0.011706200428307056,-0.03299019858241081,0.0904569998383522,0.1586158573627472,-0.10893617570400238,9.903017044067383,0.0037060717586427927,0.007798499893397093,-0.20469240844249725,-0.9787838459014893
1789657498131392641,1789657498145162397,0.012770400382578373,-0.03086180053651333,0.0904569998383522,0.08499415963888168,-0.12270283699035645,9.976638793945312,0.0034692613407969475,0.006500066723674536,-0.20562705397605896,-0.9785983562469482
1789657498145853788,1789657498149626103,0.012770400382578373,-0.03086180053651333,0.0904569998383522,0.08499415963888168,-0.12270283699035645,9.976638793945312,0.0034692613407969475,0.006500066723674536,-0.20562705397605896,-0.9785983562469482
1789657498150732335,1789657498154347358,0.012770400382578373,-0.03086180053651333,0.0904569998383522,0.08499415963888168,-0.12270283699035645,9.976638793945312,0.0034692613407969475,0.006500066723674536,-0.20562705397605896,-0.9785983562469482
1789657498155469034,1789657498165536548,0.012770400382578373,-0.03086180053651333,0.0904569998383522,0.18315643072128296,-0.06404489278793335,9.802459716796875,0.0028635053895413876,0.008603816851973534,-0.20653876662254333,-0.9783919453620911
1789657498166375416,1789657498170757957,0.012770400382578373,-0.03086180053651333,0.0904569998383522,0.18315643072128296,-0.06404489278793335,9.802459716796875,0.0028635053895413876,0.008603816851973534,-0.20653876662254333,-0.9783919453620911
1789657498171442292,1789657498174097635,0.012770400382578373,-0.03086180053651333,0.0904569998383522,0.18315643072128296,-0.06404489278793335,9.802459716796875,0.0028635053895413876,0.008603816851973534,-0.20653876662254333,-0.9783919453620911
1789657498175178720,1789657498187150409,0.012770400382578373,-0.03299019858241081,0.09152120351791382,0.12030863016843796,-0.09516951441764832,9.977835655212402,0.0033057034015655518,0.007031505927443504,-0.2074899524450302,-0.9782019257545471
1789657498187705154,1789657498191525820,0.012770400382578373,-0.03299019858241081,0.09152120351791382,0.12030863016843796,-0.09516951441764832,9.977835655212402,0.0033057034015655518,0.007031505927443504,-0.2074899524450302,-0.9782019257545471
1789657498192191082,1789657498195446743,0.012770400382578373,-0.03299019858241081,0.09152120351791382,0.12030863016843796,-0.09516951441764832,9.977835655212402,0.0033057034015655518,0.007031505927443504,-0.2074899524450302,-0.9782019257545471
1789657498196354610,1789657498207251251,0.011706200428307056,-0.03299019858241081,0.09152120351791382,0.09576806426048279,-0.10773907601833344,9.755773544311523,0.003461586544290185,0.006015132647007704,-0.20844702422618866,-0.9780045747756958
1789657498207932586,1789657498212255758,0.011706200428307056,-0.03299019858241081,0.09152120351791382,0.09576806426048279,-0.10773907601833344,9.755773544311523,0.003461586544290185,0.006015132647007704,-0.20844702422618866,-0.9780045747756958
1789657498214003641,1789657498217138694,0.011706200428307056,-0.03299019858241081,0.09152120351791382,0.09576806426048279,-0.10773907601833344,9.755773544311523,0.003461586544290185,0.006015132647007704,-0.20844702422618866,-0.9780045747756958
1789657498218655602,1789657498228309681,0.011706200428307056,-0.03299019858241081,0.09152120351791382,0.15801730751991272,-0.0999579206109047,9.924564361572266,0.004134081304073334,0.007549803238362074,-0.2093953639268875,-0.9777887463569641
1789657498228398364,1789657498230532775,0.011706200428307056,-0.03299019858241081,0.09152120351791382,0.15801730751991272,-0.0999579206109047,9.924564361572266,0.004134081304073334,0.007549803238362074,-0.2093953639268875,-0.9777887463569641
1789657498233507294,1789657498235529745,0.011706200428307056,-0.03299019858241081,0.09152120351791382,0.15801730751991272,-0.0999579206109047,9.924564361572266,0.004134081304073334,0.007549803238362074,-0.2093953639268875,-0.9777887463569641
1789657498238564078,1789657498249302557,0.011706200428307056,-0.03299019858241081,0.09152120351791382,0.07781155407428741,-0.11971008032560349,9.924564361572266,0.0037047050427645445,0.006261488888412714,-0.21035318076610565,-0.9775939583778381
1789657498249429905,1789657498251250972,0.011706200428307056,-0.03299019858241081,0.09152120351791382,0.07781155407428741,-0.11971008032560349,9.924564361572266,0.0037047050427645445,0.006261488888412714,-0.21035318076610565,-0.9775939583778381
1789657498253366346,1789657498256600138,0.011706200428307056,-0.03299019858241081,0.09152120351791382,0.07781155407428741,-0.11971008032560349,9.924564361572266,0.0037047050427645445,0.006261488888412714,-0.21035318076610565,-0.9775939583778381
1789657498258539183,1789657498270738922,0.011706200428307056,-0.031925998628139496,0.0904569998383522,0.12030863016843796,-0.11851298063993454,9.819219589233398,0.004399054683744907,0.0074755726382136345,-0.21128660440444946,-0.9773812890052795
1789657498270366209,1789657498272148517,0.011706200428307056,-0.031925998628139496,0.0904569998383522,0.12030863016843796,-0.11851298063993454,9.819219589233398,0.004399054683744907,0.0074755726382136345,-0.21128660440444946,-0.9773812890052795
1789657498273456244,1789657498277374611,0.011706200428307056,-0.031925998628139496,0.0904569998383522,0.12030863016843796,-0.11851298063993454,9.819219589233398,0.004399054683744907,0.0074755726382136345,-0.21128660440444946,-0.9773812890052795
1789657498278429752,1789657498291926941,0.01383460033684969,-0.03405439853668213,0.09258539974689484,0.11552023142576218,-0.10175357013940811,9.873687744140625,0.003937326837331057,0.0070810397155582905,-0.21223093569278717,-0.977181613445282
1789657498296318445,1789657498301835032,0.01383460033684969,-0.03405439853668213,0.09258539974689484,0.11552023142576218,-0.10175357013940811,9.873687744140625,0.003937326837331057,0.0070810397155582905,-0.21223093569278717,-0.977181613445282
1789657498301792163,1789657498312222593,0.012770400382578373,-0.03299019858241081,0.09258539974689484,0.12928688526153564,-0.06703764945268631,9.726444244384766,0.0023914058692753315,0.007931537926197052,-0.21315915882587433,-0.9769780039787292
1789657498314143639,1789657498316098499,0.012770400382578373,-0.03299019858241081,0.09258539974689484,0.12928688526153564,-0.06703764945268631,9.726444244384766,0.0023914058692753315,0.007931537926197052,-0.21315915882587433,-0.9769780039787292
1789657498318455386,1789657498321317945,0.012770400382578373,-0.03299019858241081,0.09258539974689484,0.12928688526153564,-0.06703764945268631,9.726444244384766,0.0023914058692753315,0.007931537926197052,-0.21315915882587433,-0.9769780039787292
1789657498323480003,1789657498334166928,0.01383460033684969,-0.03299019858241081,0.0904569998383522,0.1801636815071106,-0.10354921966791153,9.810839653015137,0.0032651517540216446,0.008084779605269432,-0.21410423517227173,-0.9767674207687378
1789657498333364355,1789657498335806276,0.01383460033684969,-0.03299019858241081,0.0904569998383522,0.1801636815071106,-0.10354921966791153,9.810839653015137,0.0032651517540216446,0.008084779605269432,-0.21410423517227173,-0.9767674207687378
1789657498338456878,1789657498342235138,0.01383460033684969,-0.03299019858241081,0.0904569998383522,0.1801636815071106,-0.10354921966791153,9.810839653015137,0.0032651517540216446,0.008084779605269432,-0.21410423517227173,-0.9767674207687378
1789657498343454960,1789657498354140754,0.012770400382578373,-0.03299019858241081,0.09258539974689484,0.04668693244457245,-0.104147769510746,9.86770248413086,0.003774936543777585,0.008967132307589054,-0.215051531791687,-0.9765497446060181
1789657498353407180,1789657498356273424,0.012770400382578373,-0.03299019858241081,0.09258539974689484,0.04668693244457245,-0.104147769510746,9.86770248413086,0.003774936543777585,0.008967132307589054,-0.215051531791687,-0.9765497446060181
1789657498358859954,1789657498361823548,0.012770400382578373,-0.03299019858241081,0.09258539974689484,0.04668693244457245,-0.104147769510746,9.86770248413086,0.003774936543777585,0.008967132307589054,-0.215051531791687,-0.9765497446060181
1789657498363527506,1789657498374241671,0.012770400382578373,-0.031925998628139496,0.09258539974689484,0.11911153048276901,-0.07422025501728058,9.818620681762695,0.004411826375871897,0.009287077933549881,-0.21600750088691711,-0.9763331413269043
1789657498374482405,1789657498378069559,0.012770400382578373,-0.031925998628139496,0.09258539974689484,0.11911153048276901,-0.07422025501728058,9.818620681762695,0.004411826375871897,0.009287077933549881,-0.21600750088691711,-0.9763331413269043
1789657498378673173,1789657498381571825,0.012770400382578373,-0.031925998628139496,0.09258539974689484,0.11911153048276901,-0.07422025501728058,9.818620681762695,0.004411826375871897,0.009287077933549881,-0.21600750088691711,-0.9763331413269043
1789657498383463834,1789657498395494077,0.012770400382578373,-0.03405439853668213,0.0904569998383522,0.09038111567497253,-0.09576806426048279,9.835380554199219,0.0029776724986732006,0.009066442959010601,-0.21693332493305206,-0.9761354327201843
1789657498395398802,1789657498398555021,0.012770400382578373,-0.03405439853668213,0.0904569998383522,0.09038111567497253,-0.09576806426048279,9.835380554199219,0.0029776724986732006,0.009066442959010601,-0.21693332493305206,-0.9761354327201843
1789657498399171691,1789657498402352836,0.012770400382578373,-0.03405439853668213,0.0904569998383522,0.09038111567497253,-0.09576806426048279,9.835380554199219,0.0029776724986732006,0.009066442959010601,-0.21693332493305206,-0.9761354327201843
1789657498405422316,1789657498416179813,0.012770400382578373,-0.035118598490953445,0.0904569998383522,0.12988543510437012,-0.06763619929552078,9.732429504394531,0.001907164347358048,0.007509755901992321,-0.2178603708744049,-0.9759447574615479
1789657498416976478,1789657498419209016,0.012770400382578373,-0.035118598490953445,0.0904569998383522,0.12988543510437012,-0.06763619929552078,9.732429504394531,0.001907164347358048,0.007509755901992321,-0.2178603708744049,-0.9759447574615479
1789657498419905888,1789657498423313064,0.012770400382578373,-0.035118598490953445,0.0904569998383522,0.12988543510437012,-0.06763619929552078,9.732429504394531,0.001907164347358048,0.007509755901992321,-0.2178603708744049,-0.9759447574615479
1789657498424032361,1789657498437701528,0.010641999542713165,-0.03299019858241081,0.0904569998383522,0.23822306096553802,-0.10115502029657364,9.839570045471191,0.002868048846721649,0.009135646745562553,-0.21878601610660553,-0.975721538066864
