t_ns,t_bag_ns,wx,wy,wz,ax,ay,az,qx,qy,qz,qw
1789550083548607838,1789550083553384934,0.0,-0.0063852001912891865,0.0,0.13407529890537262,-0.18974047899246216,10.023324966430664,-0.013562311418354511,-0.0018459213897585869,-0.31772559881210327,0.9480794668197632
1789550083565367406,1789550083570289594,0.0,0.0,0.0,0.1430535465478897,-0.20290859043598175,10.007762908935547,-0.012903671711683273,-0.00113398814573884,-0.3177201449871063,0.9480915665626526
1789550083570433093,1789550083575852499,0.0,0.0,0.0,0.1430535465478897,-0.20290859043598175,10.007762908935547,-0.012903671711683273,-0.00113398814573884,-0.3177201449871063,0.9480915665626526
1789550083575382132,1789550083585535598,0.0,-0.0063852001912891865,0.0,0.08080430328845978,-0.20769698917865753,9.934141159057617,-0.012548339553177357,-0.002069769660010934,-0.31773218512535095,0.948090672492981
1789550083587584713,1789550083588990241,0.0,-0.0063852001912891865,0.0,0.08080430328845978,-0.20769698917865753,9.934141159057617,-0.012548339553177357,-0.002069769660010934,-0.31773218512535095,0.948090672492981
1789550083592390421,1789550083594982051,0.0,-0.0063852001912891865,0.0,0.08080430328845978,-0.20769698917865753,9.934141159057617,-0.012548339553177357,-0.002069769660010934,-0.31773218512535095,0.948090672492981
1789550083597295016,1789550083605991825,0.0,-0.005320999771356583,0.0,0.08559270948171616,-0.25258827209472656,9.928753852844238,-0.013375409878790379,-0.00018655796884559095,-0.31770437955856323,0.9480908513069153
1789550083606661339,1789550083609986760,0.0,-0.005320999771356583,0.0,0.08559270948171616,-0.25258827209472656,9.928753852844238,-0.013375409878790379,-0.00018655796884559095,-0.31770437955856323,0.9480908513069153
1789550083611186085,1789550083615204409,0.0,-0.005320999771356583,0.0,0.08559270948171616,-0.25258827209472656,9.928753852844238,-0.013375409878790379,-0.00018655796884559095,-0.31770437955856323,0.9480908513069153
1789550083616526900,1789550083626055296,0.0,-0.007449400145560503,0.0,0.05626373738050461,-0.22325929999351501,10.062231063842773,-0.012419112958014011,-0.0008981911232694983,-0.31771668791770935,0.9480994343757629
1789550083627341731,1789550083629091682,0.0,-0.007449400145560503,0.0,0.05626373738050461,-0.22325929999351501,10.062231063842773,-0.012419112958014011,-0.0008981911232694983,-0.31771668791770935,0.9480994343757629
1789550083632304345,1789550083636111818,0.0,-0.007449400145560503,0.0,0.05626373738050461,-0.22325929999351501,10.062231063842773,-0.012419112958014011,-0.0008981911232694983,-0.31771668791770935,0.9480994343757629
1789550083638896576,1789550083647055890,0.0,-0.005320999771356583,0.0,0.13407529890537262,-0.20530278980731964,9.911994934082031,-0.012854957021772861,-0.002420068020001054,-0.3177313506603241,0.9480859041213989
1789550083650220256,1789550083653070570,0.0,-0.005320999771356583,0.0,0.13407529890537262,-0.20530278980731964,9.911994934082031,-0.012854957021772861,-0.002420068020001054,-0.3177313506603241,0.9480859041213989
1789550083654250654,1789550083657137375,0.0,-0.005320999771356583,0.0,0.13407529890537262,-0.20530278980731964,9.911994934082031,-0.012854957021772861,-0.002420068020001054,-0.3177313506603241,0.9480859041213989
1789550083658448421,1789550083668198131,0.0,-0.005320999771356583,0.0,0.10953472554683685,-0.2537853717803955,9.945513725280762,-0.014025820419192314,-0.0023512402549386024,-0.3177216947078705,0.9480728507041931
1789550083669867712,1789550083673086133,0.0,-0.005320999771356583,0.0,0.10953472554683685,-0.2537853717803955,9.945513725280762,-0.014025820419192314,-0.0023512402549386024,-0.3177216947078705,0.9480728507041931
1789550083674303551,1789550083678404596,0.0,-0.005320999771356583,0.0,0.10953472554683685,-0.2537853717803955,9.945513725280762,-0.014025820419192314,-0.0023512402549386024,-0.3177216947078705,0.9480728507041931
1789550083689248187,1789550083692048519,0.0,-0.0063852001912891865,0.0,0.16579847037792206,-0.17537526786327362,10.005967140197754,-0.01248137466609478,-0.0023298817686736584,-0.31772905588150024,0.948091983795166
1789550083694368429,1789550083697161354,0.0,-0.0063852001912891865,0.0,0.16579847037792206,-0.17537526786327362,10.005967140197754,-0.01248137466609478,-0.0023298817686736584,-0.31772905588150024,0.948091983795166
1789550083697404371,1789550083710431076,0.0,-0.005320999771356583,0.0,0.10295066982507706,-0.2388216108083725,9.945513725280762,-0.013537785038352013,-0.001326688565313816,-0.3177107572555542,0.9480855464935303
1789550083711286847,1789550083715135487,0.0,-0.005320999771356583,0.0,0.10295066982507706,-0.2388216108083725,9.945513725280762,-0.013537785038352013,-0.001326688565313816,-0.3177107572555542,0.9480855464935303
1789550083716391164,1789550083719675381,0.0,-0.005320999771356583,0.0,0.10295066982507706,-0.2388216108083725,9.945513725280762,-0.013537785038352013,-0.001326688565313816,-0.3177107572555542,0.9480855464935303
1789550083720606041,1789550083731098894,0.0,-0.0063852001912891865,0.0,0.12210428714752197,-0.243011474609375,10.035296440124512,-0.012999413534998894,-0.0019638228695839643,-0.3177196681499481,0.9480891227722168
1789550083732133887,1789550083737398554,0.0,-0.0063852001912891865,0.0,0.12210428714752197,-0.243011474609375,10.035296440124512,-0.012999413534998894,-0.0019638228695839643,-0.3177196681499481,0.9480891227722168
1789550083738293807,1789550083740190812,0.0,-0.0063852001912891865,0.0,0.12210428714752197,-0.243011474609375,10.035296440124512,-0.012999413534998894,-0.0019638228695839643,-0.3177196681499481,0.9480891227722168
1789550083752225709,1789550083754088085,0.0,-0.0063852001912891865,0.0,0.104147769510746,-0.2322375625371933,9.86111831665039,-0.012843240983784199,-0.0013056591851636767,-0.3177112936973572,0.9480951428413391
1789550083757367766,1789550083760092821,0.0,-0.0063852001912891865,0.0,0.104147769510746,-0.2322375625371933,9.86111831665039,-0.012843240983784199,-0.0013056591851636767,-0.3177112936973572,0.9480951428413391
1789550083762320509,1789550083773392672,0.0,-0.005320999771356583,0.0,0.052073884755373,-0.21547815203666687,9.927556991577148,-0.012474755756556988,-0.002118358388543129,-0.3177218437194824,0.9480949640274048
1789550083774281314,1789550083777542643,0.0,-0.005320999771356583,0.0,0.052073884755373,-0.21547815203666687,9.927556991577148,-0.012474755756556988,-0.002118358388543129,-0.3177218437194824,0.9480949640274048
1789550083780460011,1789550083782372183,0.0,-0.005320999771356583,0.0,0.052073884755373,-0.21547815203666687,9.927556991577148,-0.012474755756556988,-0.002118358388543129,-0.3177218437194824,0.9480949640274048
1789550083783319843,1789550083796157327,0.0,-0.0063852001912891865,0.0,0.10474631935358047,-0.2759317457675934,9.976638793945312,-0.013997474685311317,-0.0022485670633614063,-0.3177114725112915,0.9480769038200378
1789550083796187568,1789550083801015516,0.0,-0.0063852001912891865,0.0,0.10474631935358047,-0.2759317457675934,9.976638793945312,-0.013997474685311317,-0.0022485670633614063,-0.3177114725112915,0.9480769038200378
1789550083803572683,1789550083815639247,0.0,-0.0063852001912891865,0.0,0.03950432687997818,-0.2513911724090576,9.935338020324707,-0.012664594687521458,-0.0019915932789444923,-0.3177160322666168,0.9480947256088257
1789550083817117162,1789550083822424736,0.0,-0.0063852001912891865,0.0,0.03950432687997818,-0.2513911724090576,9.935338020324707,-0.012664594687521458,-0.0019915932789444923,-0.3177160322666168,0.9480947256088257
1789550083822360514,1789550083826863112,0.0,-0.0063852001912891865,0.0,0.03950432687997818,-0.2513911724090576,9.935338020324707,-0.012664594687521458,-0.0019915932789444923,-0.3177160322666168,0.9480947256088257
1789550083827658514,1789550083836984856,0.0,-0.007449400145560503,0.0,0.12330138683319092,-0.1759738177061081,9.916783332824707,-0.010787593200802803,-0.0028012976981699467,-0.31773367524147034,0.9481099247932434
1789550083836539619,1789550083840464851,0.0,-0.007449400145560503,0.0,0.12330138683319092,-0.1759738177061081,9.916783332824707,-0.010787593200802803,-0.0028012976981699467,-0.31773367524147034,0.9481099247932434
1789550083842205857,1789550083845289687,0.0,-0.007449400145560503,0.0,0.12330138683319092,-0.1759738177061081,9.916783332824707,-0.010787593200802803,-0.0028012976981699467,-0.31773367524147034,0.9481099247932434
1789550083856581682,1789550083864616607,0.0,-0.0063852001912891865,0.0,0.07900865375995636,-0.2472013235092163,9.782708168029785,-0.01142118126153946,-0.0010784941259771585,-0.31771257519721985,0.9481130838394165
1789550083862013478,1789550083871160728,0.0,-0.0063852001912891865,0.0,0.07900865375995636,-0.2472013235092163,9.782708168029785,-0.01142118126153946,-0.0010784941259771585,-0.31771257519721985,0.9481130838394165
1789550083870638306,1789550083885679645,0.0,-0.005320999771356583,0.0,0.10893617570400238,-0.1825578808784485,9.913191795349121,-0.011328449472784996,-0.002364006359130144,-0.3177257776260376,0.9481074213981628
1789550083882656926,1789550083891418346,0.0,-0.005320999771356583,0.0,0.10893617570400238,-0.1825578808784485,9.913191795349121,-0.011328449472784996,-0.002364006359130144,-0.3177257776260376,0.9481074213981628
1789550083900871317,1789550083903885036,0.0,-0.007449400145560503,0.0,0.11611878126859665,-0.22625206410884857,9.877877235412598,-0.012622129172086716,-0.0018303240649402142,-0.3177119493484497,0.9480969309806824
1789550083905894670,1789550083907626251,0.0,-0.007449400145560503,0.0,0.11611878126859665,-0.22625206410884857,9.877877235412598,-0.012622129172086716,-0.0018303240649402142,-0.3177119493484497,0.9480969309806824
1789550083910132715,1789550083919605611,0.0,-0.0063852001912891865,0.0,0.05506663769483566,-0.28969839215278625,9.955689430236816,-0.012115620076656342,-0.0023578512482345104,-0.31771934032440186,0.9480999112129211
1789550083922532943,1789550083928294680,0.0,-0.0063852001912891865,0.0,0.05506663769483566,-0.28969839215278625,9.955689430236816,-0.012115620076656342,-0.0023578512482345104,-0.31771934032440186,0.9480999112129211
1789550083931877562,1789550083940347392,0.0,-0.0063852001912891865,0.0,0.18734627962112427,-0.19273322820663452,9.858723640441895,-0.01237477920949459,-0.001747200614772737,-0.31770962476730347,0.9481011629104614
1789550083942627709,1789550083944403086,0.0,-0.0063852001912891865,0.0,0.18734627962112427,-0.19273322820663452,9.858723640441895,-0.01237477920949459,-0.001747200614772737,-0.31770962476730347,0.9481011629104614
1789550083949698623,1789550083961569281,0.0,0.0,0.0,0.11252747476100922,-0.2064998894929886,9.960477828979492,-0.012286349199712276,-0.0026460124645382166,-0.3177199065685272,0.9480968713760376
1789550083964100763,1789550083968361177,0.0,0.0,0.0,0.11252747476100922,-0.2064998894929886,9.960477828979492,-0.012286349199712276,-0.0026460124645382166,-0.3177199065685272,0.9480968713760376
1789550083970928252,1789550083981557900,0.0,-0.0063852001912891865,0.0,0.1215057373046875,-0.21667525172233582,10.061034202575684,-0.012257833033800125,-0.0019662186969071627,-0.3177112638950348,0.9481017589569092
1789550083984120715,1789550083987445803,0.0,-0.0063852001912891865,0.0,0.1215057373046875,-0.21667525172233582,10.061034202575684,-0.012257833033800125,-0.0019662186969071627,-0.3177112638950348,0.9481017589569092
1789550083991506645,1789550084002109478,0.0,-0.004256799817085266,0.0,0.11611878126859665,-0.25258827209472656,10.023923873901367,-0.012771847657859325,-0.000951632799115032,-0.31769663095474243,0.9481014609336853
1789550084005313408,1789550084007111555,0.0,-0.004256799817085266,0.0,0.11611878126859665,-0.25258827209472656,10.023923873901367,-0.012771847657859325,-0.000951632799115032,-0.31769663095474243,0.9481014609336853
1789550084008297653,1789550084012061853,0.0,-0.004256799817085266,0.0,0.11611878126859665,-0.25258827209472656,10.023923873901367,-0.012771847657859325,-0.000951632799115032,-0.31769663095474243,0.9481014609336853
1789550084013041842,1789550084023628318,0.0,0.0,0.0,0.1280897855758667,-0.228047713637352,9.964667320251465,-0.011869106441736221,-0.001380356028676033,-0.3177047073841095,0.9481098651885986
1789550084024532308,1789550084029083758,0.0,0.0,0.0,0.1280897855758667,-0.228047713637352,9.964667320251465,-0.011869106441736221,-0.001380356028676033,-0.3177047073841095,0.9481098651885986
1789550084031621823,1789550084044312813,0.0,-0.004256799817085266,0.0,0.12330138683319092,-0.2454056739807129,9.922170639038086,-0.012706702575087547,-0.0006216145120561123,-0.31769251823425293,0.9481039643287659
1789550084047825070,1789550084053869022,0.0,-0.004256799817085266,0.0,0.12330138683319092,-0.2454056739807129,9.922170639038086,-0.012706702575087547,-0.0006216145120561123,-0.31769251823425293,0.9481039643287659
1789550084065489209,1789550084067557242,0.0,-0.005320999771356583,0.0,0.0628477931022644,-0.19632454216480255,9.925163269042969,-0.012344243004918098,-0.0015957638388499618,-0.31770506501197815,0.9481032490730286
1789550084069519406,1789550084072620075,0.0,-0.005320999771356583,0.0,0.0628477931022644,-0.19632454216480255,9.925163269042969,-0.012344243004918098,-0.0015957638388499618,-0.31770506501197815,0.9481032490730286
1789550084074496777,1789550084087654947,0.0,-0.004256799817085266,0.0,0.1149216815829277,-0.23582886159420013,10.00836181640625,-0.013102024793624878,-0.001863834448158741,-0.31770262122154236,0.9480934739112854
1789550084090432046,1789550084092017306,0.0,-0.004256799817085266,0.0,0.1149216815829277,-0.23582886159420013,10.00836181640625,-0.013102024793624878,-0.001863834448158741,-0.31770262122154236,0.9480934739112854
1789550084106257779,1789550084109284727,0.0,-0.004256799817085266,0.0,0.07841010391712189,-0.2555810213088989,9.936535835266113,-0.012947138398885727,-0.0025753111112862825,-0.3177109658718109,0.9480912685394287
1789550084110388326,1789550084113185888,0.0,-0.004256799817085266,0.0,0.07841010391712189,-0.2555810213088989,9.936535835266113,-0.012947138398885727,-0.0025753111112862825,-0.3177109658718109,0.9480912685394287
1789550084114395653,1789550084118263203,0.0,-0.004256799817085266,0.0,0.07841010391712189,-0.2555810213088989,9.936535835266113,-0.012947138398885727,-0.0025753111112862825,-0.3177109658718109,0.9480912685394287
1789550084120715194,1789550084128267056,0.0,-0.005320999771356583,0.0,0.1430535465478897,-0.21847090125083923,9.96825885772705,-0.013547255657613277,-0.002215521177276969,-0.3177017271518707,0.9480867981910706
1789550084129205879,1789550084133526627,0.0,-0.005320999771356583,0.0,0.1430535465478897,-0.21847090125083923,9.96825885772705,-0.013547255657613277,-0.002215521177276969,-0.3177017271518707,0.9480867981910706
1789550084134432321,1789550084138852384,0.0,-0.005320999771356583,0.0,0.1430535465478897,-0.21847090125083923,9.96825885772705,-0.013547255657613277,-0.002215521177276969,-0.3177017271518707,0.9480867981910706
1789550084138302390,1789550084149044438,0.0,-0.004256799817085266,0.0,0.07900865375995636,-0.21787235140800476,9.814431190490723,-0.01251733023673296,-0.0006410625646822155,-0.3176865875720978,0.9481083154678345
1789550084151304265,1789550084155530626,0.0,-0.004256799817085266,0.0,0.07900865375995636,-0.21787235140800476,9.814431190490723,-0.01251733023673296,-0.0006410625646822155,-0.3176865875720978,0.9481083154678345
1789550084157862008,1789550084169889709,0.0,-0.0063852001912891865,0.0,0.09696516394615173,-0.21667525172233582,9.972448348999023,-0.012235807254910469,-0.0015849146293476224,-0.3176981508731842,0.9481070637702942
1789550084169911060,1789550084172886565,0.0,-0.0063852001912891865,0.0,0.09696516394615173,-0.21667525172233582,9.972448348999023,-0.012235807254910469,-0.0015849146293476224,-0.3176981508731842,0.9481070637702942
1789550084172934657,1789550084176485821,0.0,-0.0063852001912891865,0.0,0.09696516394615173,-0.21667525172233582,9.972448348999023,-0.012235807254910469,-0.0015849146293476224,-0.3176981508731842,0.9481070637702942
1789550084191516360,1789550084195697258,0.0,-0.008513599634170532,0.0,0.1173158809542656,-0.22625206410884857,9.951498985290527,-0.012993676587939262,-0.001370590296573937,-0.31769007444381714,0.9481000304222107
1789550084197448091,1789550084199760954,0.0,-0.008513599634170532,0.0,0.1173158809542656,-0.22625206410884857,9.951498985290527,-0.012993676587939262,-0.001370590296573937,-0.31769007444381714,0.9481000304222107
1789550084202288223,1789550084211860395,0.0,0.0,0.0,0.1149216815829277,-0.2412158101797104,9.86770248413086,-0.012981378473341465,-0.002166242338716984,-0.31769850850105286,0.9480959177017212
1789550084211346623,1789550084213436063,0.0,0.0,0.0,0.1149216815829277,-0.2412158101797104,9.86770248413086,-0.012981378473341465,-0.002166242338716984,-0.31769850850105286,0.9480959177017212
1789550084213893614,1789550084219824437,0.0,0.0,0.0,0.1149216815829277,-0.2412158101797104,9.86770248413086,-0.012981378473341465,-0.002166242338716984,-0.31769850850105286,0.9480959177017212
1789550084220414153,1789550084232243171,0.0,-0.0063852001912891865,0.0,0.09636661410331726,-0.228047713637352,9.855133056640625,-0.012178480625152588,-0.0011776945320889354,-0.31768953800201416,0.9481112957000732
1789550084233410769,1789550084238389381,0.0,-0.0063852001912891865,0.0,0.09636661410331726,-0.228047713637352,9.855133056640625,-0.012178480625152588,-0.0011776945320889354,-0.31768953800201416,0.9481112957000732
1789550084238214698,1789550084241391459,0.0,-0.0063852001912891865,0.0,0.09636661410331726,-0.228047713637352,9.855133056640625,-0.012178480625152588,-0.0011776945320889354,-0.31768953800201416,0.9481112957000732
1789550084253978987,1789550084257072435,0.0,-0.005320999771356583,0.0,0.01975216343998909,-0.23343466222286224,9.891045570373535,-0.011039703153073788,-0.0011751148849725723,-0.31769442558288574,0.9481236338615417
1789550084257964221,1789550084260527027,0.0,-0.005320999771356583,0.0,0.01975216343998909,-0.23343466222286224,9.891045570373535,-0.011039703153073788,-0.0011751148849725723,-0.31769442558288574,0.9481236338615417
1789550084262475542,1789550084274204265,0.0,-0.0063852001912891865,0.0,0.13347674906253815,-0.18734627962112427,10.004770278930664,-0.012067788280546665,-0.001495381467975676,-0.3176921010017395,0.948111355304718
1789550084275878321,1789550084278151185,0.0,-0.0063852001912891865,0.0,0.13347674906253815,-0.18734627962112427,10.004770278930664,-0.012067788280546665,-0.001495381467975676,-0.3176921010017395,0.948111355304718
1789550084280361919,1789550084283203055,0.0,-0.0063852001912891865,0.0,0.13347674906253815,-0.18734627962112427,10.004770278930664,-0.012067788280546665,-0.001495381467975676,-0.3176921010017395,0.948111355304718
1789550084284786037,1789550084295041610,0.0,-0.004256799817085266,0.0,0.1280897855758667,-0.28131869435310364,9.824606895446777,-0.011910554021596909,-0.0006256441702134907,-0.31768277287483215,0.9481175541877747
1789550084295105665,1789550084297866560,0.0,-0.004256799817085266,0.0,0.1280897855758667,-0.28131869435310364,9.824606895446777,-0.011910554021596909,-0.0006256441702134907,-0.31768277287483215,0.9481175541877747
1789550084299430876,1789550084303583775,0.0,-0.004256799817085266,0.0,0.1280897855758667,-0.28131869435310364,9.824606895446777,-0.011910554021596909,-0.0006256441702134907,-0.31768277287483215,0.9481175541877747
1789550084304055751,1789550084316713797,0.0,-0.0063852001912891865,0.0,0.09876082092523575,-0.18794482946395874,9.972448348999023,-0.01079306099563837,-0.0003834821400232613,-0.3176825940608978,0.9481310844421387
1789550084319525211,1789550084322321365,0.0,-0.0063852001912891865,0.0,0.09876082092523575,-0.18794482946395874,9.972448348999023,-0.01079306099563837,-0.0003834821400232613,-0.3176825940608978,0.9481310844421387
1789550084323338817,1789550084325083576,0.0,-0.0063852001912891865,0.0,0.09876082092523575,-0.18794482946395874,9.972448348999023,-0.01079306099563837,-0.0003834821400232613,-0.3176825940608978,0.9481310844421387
1789550084327196923,1789550084336156843,0.0,-0.005320999771356583,0.0,0.04728548228740692,-0.25737667083740234,9.895235061645508,-0.012456896714866161,0.0006156586459837854,-0.31766366958618164,0.9481168985366821
1789550084337486032,1789550084342959064,0.0,-0.005320999771356583,0.0,0.04728548228740692,-0.25737667083740234,9.895235061645508,-0.012456896714866161,0.0006156586459837854,-0.31766366958618164,0.9481168985366821
1789550084342225387,1789550084346140770,0.0,-0.005320999771356583,0.0,0.04728548228740692,-0.25737667083740234,9.895235061645508,-0.012456896714866161,0.0006156586459837854,-0.31766366958618164,0.9481168985366821
1789550084347400404,1789550084357191648,0.0,-0.005320999771356583,0.0,0.10295066982507706,-0.2609679698944092,9.946710586547852,-0.013094095513224602,-0.0008053315104916692,-0.31767597794532776,0.9481040835380554
1789550084358063991,1789550084361315047,0.0,-0.005320999771356583,0.0,0.10295066982507706,-0.2609679698944092,9.946710586547852,-0.013094095513224602,-0.0008053315104916692,-0.31767597794532776,0.9481040835380554
1789550084362158409,1789550084364390440,0.0,-0.005320999771356583,0.0,0.10295066982507706,-0.2609679698944092,9.946710586547852,-0.013094095513224602,-0.0008053315104916692,-0.31767597794532776,0.9481040835380554
1789550084367439350,1789550084378630875,0.0,-0.007449400145560503,0.0,0.08439560979604721,-0.23104046285152435,9.912593841552734,-0.013783133588731289,-0.001129905111156404,-0.31767451763153076,0.9480944275856018
1789550084378445229,1789550084382191392,0.0,-0.007449400145560503,0.0,0.08439560979604721,-0.23104046285152435,9.912593841552734,-0.013783133588731289,-0.001129905111156404,-0.31767451763153076,0.9480944275856018
1789550084385947795,1789550084389992380,0.0,-0.007449400145560503,0.0,0.08439560979604721,-0.23104046285152435,9.912593841552734,-0.013783133588731289,-0.001129905111156404,-0.31767451763153076,0.9480944275856018
1789550084389865937,1789550084399605126,0.0,-0.005320999771356583,0.0,0.10175357013940811,-0.19931729137897491,9.910798072814941,-0.011943850666284561,-0.0018087592907249928,-0.3176916539669037,0.9481126070022583
1789550084402347392,1789550084404441388,0.0,-0.005320999771356583,0.0,0.10175357013940811,-0.19931729137897491,9.910798072814941,-0.011943850666284561,-0.0018087592907249928,-0.3176916539669037,0.9481126070022583
1789550084407293338,1789550084423503511,0.0,-0.0063852001912891865,0.0,0.08379705995321274,-0.2059013396501541,9.992798805236816,-0.012514428235590458,-0.0023165885359048843,-0.3176923990249634,0.9481037855148315
1789550084423440086,1789550084428705306,0.0,-0.0063852001912891865,0.0,0.08379705995321274,-0.2059013396501541,9.992798805236816,-0.012514428235590458,-0.0023165885359048843,-0.3176923990249634,0.9481037855148315
1789550084428282922,1789550084441397481,0.0,-0.005320999771356583,0.0,0.07900865375995636,-0.24001871049404144,9.933542251586914,-0.01284016389399767,-0.00040491847903467715,-0.3176666796207428,0.9481109380722046
1789550084442504376,1789550084445120440,0.0,-0.005320999771356583,0.0,0.07900865375995636,-0.24001871049404144,9.933542251586914,-0.01284016389399767,-0.00040491847903467715,-0.3176666796207428,0.9481109380722046
1789550084448281572,1789550084450413123,0.0,-0.005320999771356583,0.0,0.07900865375995636,-0.24001871049404144,9.933542251586914,-0.01284016389399767,-0.00040491847903467715,-0.3176666796207428,0.9481109380722046
1789550084452835355,1789550084464331970,0.0,-0.005320999771356583,0.0,0.1280897855758667,-0.16879121959209442,9.961674690246582,-0.013291947543621063,-0.0016989577561616898,-0.3176795244216919,0.94809889793396
1789550084464289841,1789550084466381651,0.0,-0.005320999771356583,0.0,0.1280897855758667,-0.16879121959209442,9.961674690246582,-0.013291947543621063,-0.0016989577561616898,-0.3176795244216919,0.94809889793396
1789550084468094428,1789550084472138680,0.0,-0.005320999771356583,0.0,0.1280897855758667,-0.16879121959209442,9.961674690246582,-0.013291947543621063,-0.0016989577561616898,-0.3176795244216919,0.94809889793396
1789550084473229890,1789550084484272343,0.0,-0.005320999771356583,0.0,0.1412578970193863,-0.24899697303771973,9.993996620178223,-0.013181162998080254,-0.0010494812158867717,-0.31767094135284424,0.9481043219566345
1789550084487328180,1789550084490369905,0.0,-0.005320999771356583,0.0,0.1412578970193863,-0.24899697303771973,9.993996620178223,-0.013181162998080254,-0.0010494812158867717,-0.31767094135284424,0.9481043219566345
1789550084504485954,1789550084506196176,0.0,-0.005320999771356583,0.0,0.13587094843387604,-0.24001871049404144,9.88086986541748,-0.012470919638872147,-0.0019309648778289557,-0.3176831603050232,0.948108434677124
1789550084507396014,1789550084510793644,0.0,-0.005320999771356583,0.0,0.13587094843387604,-0.24001871049404144,9.88086986541748,-0.012470919638872147,-0.0019309648778289557,-0.3176831603050232,0.948108434677124
1789550084512260757,1789550084524254144,0.0,-0.0063852001912891865,0.0,0.1173158809542656,-0.27473464608192444,10.064026832580566,-0.014385497197508812,-0.0012358599342405796,-0.3176625967025757,0.9480894207954407
1789550084524705731,1789550084527205871,0.0,-0.0063852001912891865,0.0,0.1173158809542656,-0.27473464608192444,10.064026832580566,-0.014385497197508812,-0.0012358599342405796,-0.3176625967025757,0.9480894207954407
1789550084528377524,1789550084531299048,0.0,-0.0063852001912891865,0.0,0.1173158809542656,-0.27473464608192444,10.064026832580566,-0.014385497197508812,-0.0012358599342405796,-0.3176625967025757,0.9480894207954407
1789550084532411832,1789550084534131350,0.0,-0.0063852001912891865,0.0,0.1173158809542656,-0.27473464608192444,10.064026832580566,-0.014385497197508812,-0.0012358599342405796,-0.3176625967025757,0.9480894207954407
1789550084538148880,1789550084546647175,0.0,-0.004256799817085266,0.0,0.09816227108240128,-0.2513911724090576,9.944316864013672,-0.013372324407100677,-0.0012712699826806784,-0.31766805052757263,0.9481022953987122
1789550084547686608,1789550084551769026,0.0,-0.004256799817085266,0.0,0.09816227108240128,-0.2513911724090576,9.944316864013672,-0.013372324407100677,-0.0012712699826806784,-0.31766805052757263,0.9481022953987122
1789550084553444452,1789550084567290689,0.0,-0.005320999771356583,0.0,0.10295066982507706,-0.2412158101797104,9.93474006652832,-0.013031277805566788,-0.0019568409770727158,-0.3176772892475128,0.9481027722358704
1789550084568287437,1789550084572285949,0.0,-0.005320999771356583,0.0,0.10295066982507706,-0.2412158101797104,9.93474006652832,-0.013031277805566788,-0.0019568409770727158,-0.3176772892475128,0.9481027722358704
1789550084575082085,1789550084590461471,0.0,-0.005320999771356583,0.0,0.1256955862045288,-0.23523031175136566,9.81143856048584,-0.013630435802042484,-0.0015106926439329982,-0.3176676034927368,0.9480984210968018
1789550084592431875,1789550084594864534,0.0,-0.005320999771356583,0.0,0.1256955862045288,-0.23523031175136566,9.81143856048584,-0.013630435802042484,-0.0015106926439329982,-0.3176676034927368,0.9480984210968018
1789550084597362988,1789550084608132110,0.0,-0.0063852001912891865,0.0,0.07182604819536209,-0.20949263870716095,9.965864181518555,-0.013102998025715351,-0.0024151657707989216,-0.3176811635494232,0.9480994939804077
1789550084608378033,1789550084610381159,0.0,-0.0063852001912891865,0.0,0.07182604819536209,-0.20949263870716095,9.965864181518555,-0.013102998025715351,-0.0024151657707989216,-0.3176811635494232,0.9480994939804077
1789550084612270064,1789550084618046945,0.0,-0.0063852001912891865,0.0,0.07182604819536209,-0.20949263870716095,9.965864181518555,-0.013102998025715351,-0.0024151657707989216,-0.3176811635494232,0.9480994939804077
1789550084617592265,1789550084629370913,0.0,-0.009577799588441849,0.0,0.11791443079710007,-0.23343466222286224,9.955090522766113,-0.012971539981663227,-0.0018176735611632466,-0.3176729083061218,0.9481052756309509
1789550084630070869,1789550084634701910,0.0,-0.009577799588441849,0.0,0.11791443079710007,-0.23343466222286224,9.955090522766113,-0.012971539981663227,-0.0018176735611632466,-0.3176729083061218,0.9481052756309509
1789550084635206071,1789550084639411414,0.0,-0.009577799588441849,0.0,0.11791443079710007,-0.23343466222286224,9.955090522766113,-0.012971539981663227,-0.0018176735611632466,-0.3176729083061218,0.9481052756309509
1789550084640038611,1789550084650243795,0.0,-0.0063852001912891865,0.0,0.11611878126859665,-0.22685061395168304,9.770736694335938,-0.012303290888667107,-0.0020536277443170547,-0.3176778256893158,0.9481121301651001
1789550084652399771,1789550084656426245,0.0,-0.0063852001912891865,0.0,0.11611878126859665,-0.22685061395168304,9.770736694335938,-0.012303290888667107,-0.0020536277443170547,-0.3176778256893158,0.9481121301651001
1789550084657711102,1789550084661979258,0.0,-0.0063852001912891865,0.0,0.11611878126859665,-0.22685061395168304,9.770736694335938,-0.012303290888667107,-0.0020536277443170547,-0.3176778256893158,0.9481121301651001
1789550084662274033,1789550084671333618,0.0,-0.0063852001912891865,0.0,0.10773907601833344,-0.26755204796791077,9.858723640441895,-0.01409293245524168,-0.0016693980433046818,-0.31766048073768616,0.9480937123298645
1789550084671495524,1789550084673132525,0.0,-0.0063852001912891865,0.0,0.10773907601833344,-0.26755204796791077,9.858723640441895,-0.01409293245524168,-0.0016693980433046818,-0.31766048073768616,0.9480937123298645
1789550084674122069,1789550084675968660,0.0,-0.0063852001912891865,0.0,0.10773907601833344,-0.26755204796791077,9.858723640441895,-0.01409293245524168,-0.0016693980433046818,-0.31766048073768616,0.9480937123298645
1789550084678348597,1789550084680105003,0.0,-0.0063852001912891865,0.0,0.10773907601833344,-0.26755204796791077,9.858723640441895,-0.01409293245524168,-0.0016693980433046818,-0.31766048073768616,0.9480937123298645
1789550084682274313,1789550084692489534,0.0,-0.004256799817085266,0.0,0.11971008032560349,-0.22325929999351501,9.97484302520752,-0.012077302671968937,-0.0022236278746277094,-0.31767818331718445,0.9481145143508911
1789550084692498997,1789550084694632732,0.0,-0.004256799817085266,0.0,0.11971008032560349,-0.22325929999351501,9.97484302520752,-0.012077302671968937,-0.0022236278746277094,-0.31767818331718445,0.9481145143508911
1789550084697197297,1789550084699910378,0.0,-0.004256799817085266,0.0,0.11971008032560349,-0.22325929999351501,9.97484302520752,-0.012077302671968937,-0.0022236278746277094,-0.31767818331718445,0.9481145143508911
1789550084702366166,1789550084713991686,0.0,-0.005320999771356583,0.0,0.16759411990642548,-0.18315643072128296,10.000580787658691,-0.01304861530661583,-0.002470890060067177,-0.3176751136779785,0.9481020569801331
1789550084716400049,1789550084723849133,0.0,-0.005320999771356583,0.0,0.16759411990642548,-0.18315643072128296,10.000580787658691,-0.01304861530661583,-0.002470890060067177,-0.3176751136779785,0.9481020569801331
1789550084722645350,1789550084734951104,0.0,-0.0063852001912891865,0.0,0.08978256583213806,-0.23343466222286224,9.989208221435547,-0.012533406727015972,-0.000599253864493221,-0.3176543712615967,0.9481189846992493
1789550084735141768,1789550084738290993,0.0,-0.0063852001912891865,0.0,0.08978256583213806,-0.23343466222286224,9.989208221435547,-0.012533406727015972,-0.000599253864493221,-0.3176543712615967,0.9481189846992493
1789550084739066484,1789550084743189032,0.0,-0.0063852001912891865,0.0,0.08978256583213806,-0.23343466222286224,9.989208221435547,-0.012533406727015972,-0.000599253864493221,-0.3176543712615967,0.9481189846992493
1789550084754574295,1789550084757246581,0.0,-0.007449400145560503,0.0,0.14245499670505524,-0.23163901269435883,9.88745403289795,-0.01350342482328415,-0.002276389626786113,-0.3176681399345398,0.9480984807014465
1789550084758202385,1789550084762580040,0.0,-0.007449400145560503,0.0,0.14245499670505524,-0.23163901269435883,9.88745403289795,-0.01350342482328415,-0.002276389626786113,-0.3176681399345398,0.9480984807014465
1789550084764530186,1789550084775261549,0.0,-0.0063852001912891865,0.0,0.07541735470294952,-0.25079262256622314,9.985616683959961,-0.014141790568828583,-0.0008827153360471129,-0.3176443576812744,0.9480995535850525
1789550084776210465,1789550084780148736,0.0,-0.0063852001912891865,0.0,0.07541735470294952,-0.25079262256622314,9.985616683959961,-0.014141790568828583,-0.0008827153360471129,-0.3176443576812744,0.9480995535850525
1789550084782724874,1789550084784117470,0.0,-0.0063852001912891865,0.0,0.07541735470294952,-0.25079262256622314,9.985616683959961,-0.014141790568828583,-0.0008827153360471129,-0.3176443576812744,0.9480995535850525
1789550084787276380,1789550084796216245,0.0,-0.005320999771356583,0.0,0.15442600846290588,-0.19393032789230347,9.943717956542969,-0.012912419624626637,-0.0026051432359963655,-0.3176712393760681,0.9481048583984375
1789550084796511556,1789550084798830438,0.0,-0.005320999771356583,0.0,0.15442600846290588,-0.19393032789230347,9.943717956542969,-0.012912419624626637,-0.0026051432359963655,-0.3176712393760681,0.9481048583984375
1789550084801358132,1789550084803146409,0.0,-0.005320999771356583,0.0,0.15442600846290588,-0.19393032789230347,9.943717956542969,-0.012912419624626637,-0.0026051432359963655,-0.3176712393760681,0.9481048583984375
1789550084804272915,1789550084820034927,0.0,-0.005320999771356583,0.0,0.04908113554120064,-0.26336216926574707,9.983820915222168,-0.012669877149164677,-0.000642200349830091,-0.3176490366458893,0.9481188654899597
1789550084820710901,1789550084824288232,0.0,-0.005320999771356583,0.0,0.04908113554120064,-0.26336216926574707,9.983820915222168,-0.012669877149164677,-0.000642200349830091,-0.3176490366458893,0.9481188654899597
1789550084825947954,1789550084838957052,0.0,-0.005320999771356583,0.0,0.09696516394615173,-0.22206220030784607,9.881468772888184,-0.012081991881132126,-0.0011267433874309063,-0.31765562295913696,0.9481239318847656
1789550084839605212,1789550084842415773,0.0,-0.005320999771356583,0.0,0.09696516394615173,-0.22206220030784607,9.881468772888184,-0.012081991881132126,-0.0011267433874309063,-0.31765562295913696,0.9481239318847656
1789550084847376478,1789550084859517881,0.0,-0.004256799817085266,0.0,0.10953472554683685,-0.25498247146606445,9.919177055358887,-0.01383762527257204,-0.001272837514989078,-0.3176461458206177,0.9481029510498047
1789550084860504037,1789550084863356784,0.0,-0.004256799817085266,0.0,0.10953472554683685,-0.25498247146606445,9.919177055358887,-0.01383762527257204,-0.001272837514989078,-0.3176461458206177,0.9481029510498047
1789550084864220589,1789550084868243637,0.0,-0.004256799817085266,0.0,0.10953472554683685,-0.25498247146606445,9.919177055358887,-0.01383762527257204,-0.001272837514989078,-0.3176461458206177,0.9481029510498047
1789550084869156942,1789550084879209035,0.0,-0.005320999771356583,0.0,0.06584054231643677,-0.24660277366638184,9.925163269042969,-0.012594206258654594,-0.0009473854443058372,-0.3176480531692505,0.9481199979782104
1789550084880466540,1789550084884513347,0.0,-0.005320999771356583,0.0,0.06584054231643677,-0.24660277366638184,9.925163269042969,-0.012594206258654594,-0.0009473854443058372,-0.3176480531692505,0.9481199979782104
1789550084887028745,1789550084889501941,0.0,-0.005320999771356583,0.0,0.06584054231643677,-0.24660277366638184,9.925163269042969,-0.012594206258654594,-0.0009473854443058372,-0.3176480531692505,0.9481199979782104
1789550084890966517,1789550084900632633,0.0,0.0,0.0,0.13706804811954498,-0.21607670187950134,9.911396026611328,-0.013618827797472477,-0.001482858438976109,-0.31764912605285645,0.9481047987937927
1789550084903465324,1789550084906432569,0.0,0.0,0.0,0.13706804811954498,-0.21607670187950134,9.911396026611328,-0.013618827797472477,-0.001482858438976109,-0.31764912605285645,0.9481047987937927
1789550084907933330,1789550084910530265,0.0,0.0,0.0,0.13706804811954498,-0.21607670187950134,9.911396026611328,-0.013618827797472477,-0.001482858438976109,-0.31764912605285645,0.9481047987937927
1789550084912260227,1789550084921864862,0.0,-0.004256799817085266,0.0,0.09576806426048279,-0.2711433470249176,10.035296440124512,-0.013664891943335533,-0.00026532760239206254,-0.3176332414150238,0.9481106996536255
1789550084923879877,1789550084927092712,0.0,-0.004256799817085266,0.0,0.09576806426048279,-0.2711433470249176,10.035296440124512,-0.013664891943335533,-0.00026532760239206254,-0.3176332414150238,0.9481106996536255
1789550084928316495,1789550084931231241,0.0,-0.004256799817085266,0.0,0.09576806426048279,-0.2711433470249176,10.035296440124512,-0.013664891943335533,-0.00026532760239206254,-0.3176332414150238,0.9481106996536255
1789550084932255470,1789550084943082536,0.0,-0.004256799817085266,0.0,0.13766659796237946,-0.19692309200763702,9.821613311767578,-0.012947041541337967,-0.0021929091308265924,-0.3176600933074951,0.9481092095375061
1789550084945161384,1789550084948119518,0.0,-0.004256799817085266,0.0,0.13766659796237946,-0.19692309200763702,9.821613311767578,-0.012947041541337967,-0.0021929091308265924,-0.3176600933074951,0.9481092095375061
1789550084952984946,1789550084963666439,0.0,0.0,0.0,0.12689268589019775,-0.21428105235099792,10.046669006347656,-0.013190328143537045,-0.0015020346036180854,-0.31764960289001465,0.9481106400489807
1789550084964982203,1789550084968308981,0.0,0.0,0.0,0.12689268589019775,-0.21428105235099792,10.046669006347656,-0.013190328143537045,-0.0015020346036180854,-0.31764960289001465,0.9481106400489807
1789550084969498968,1789550084973320592,0.0,0.0,0.0,0.12689268589019775,-0.21428105235099792,10.046669006347656,-0.013190328143537045,-0.0015020346036180854,-0.31764960289001465,0.9481106400489807
1789550084974311341,1789550084984578246,0.0,0.0,0.0,0.15322890877723694,-0.22026655077934265,9.971251487731934,-0.012108047492802143,-0.0018116416176781058,-0.31765782833099365,0.9481218457221985
1789550084988763293,1789550084992203681,0.0,0.0,0.0,0.15322890877723694,-0.22026655077934265,9.971251487731934,-0.012108047492802143,-0.0018116416176781058,-0.31765782833099365,0.9481218457221985
1789550085005575615,1789550085007474698,0.0,-0.005320999771356583,0.0,0.16220715641975403,-0.23822306096553802,9.898228645324707,-0.013073204085230827,-0.0013084778329357505,-0.31764650344848633,0.9481136798858643
1789550085010181788,1789550085012376440,0.0,-0.005320999771356583,0.0,0.16220715641975403,-0.23822306096553802,9.898228645324707,-0.013073204085230827,-0.0013084778329357505,-0.31764650344848633,0.9481136798858643
1789550085016530212,1789550085026266233,0.0,-0.005320999771356583,0.0,0.08200141042470932,-0.2322375625371933,9.881468772888184,-0.012702376581728458,-0.00016104672977235168,-0.3176324665546417,0.9481242895126343
1789550085027415642,1789550085031547451,0.0,-0.005320999771356583,0.0,0.08200141042470932,-0.2322375625371933,9.881468772888184,-0.012702376581728458,-0.00016104672977235168,-0.3176324665546417,0.9481242895126343
1789550085032405420,1789550085035409246,0.0,-0.005320999771356583,0.0,0.08200141042470932,-0.2322375625371933,9.881468772888184,-0.012702376581728458,-0.00016104672977235168,-0.3176324665546417,0.9481242895126343
1789550085038143890,1789550085047195589,0.0,-0.0063852001912891865,0.0,0.11133037507534027,-0.20111294090747833,9.8599214553833,-0.012859003618359566,-0.0016163097461685538,-0.3176485002040863,0.9481154680252075
1789550085047519417,1789550085049812772,0.0,-0.0063852001912891865,0.0,0.11133037507534027,-0.20111294090747833,9.8599214553833,-0.012859003618359566,-0.0016163097461685538,-0.3176485002040863,0.9481154680252075
1789550085052354031,1789550085054286187,0.0,-0.0063852001912891865,0.0,0.11133037507534027,-0.20111294090747833,9.8599214553833,-0.012859003618359566,-0.0016163097461685538,-0.3176485002040863,0.9481154680252075
1789550085057666674,1789550085068292886,0.0,-0.005320999771356583,0.0,0.12509703636169434,-0.22744916379451752,9.916783332824707,-0.01365583948791027,-0.0016062682261690497,-0.3176427185535431,0.9481062889099121
1789550085068551419,1789550085070244283,0.0,-0.005320999771356583,0.0,0.12509703636169434,-0.22744916379451752,9.916783332824707,-0.01365583948791027,-0.0016062682261690497,-0.3176427185535431,0.9481062889099121
1789550085072243679,1789550085076291156,0.0,-0.005320999771356583,0.0,0.12509703636169434,-0.22744916379451752,9.916783332824707,-0.01365583948791027,-0.0016062682261690497,-0.3176427185535431,0.9481062889099121
1789550085088684694,1789550085092000830,0.0,-0.004256799817085266,0.0,0.13287819921970367,-0.18974047899246216,9.873088836669922,-0.012052982114255428,-0.0017746968660503626,-0.3176518380641937,0.9481245875358582
1789550085094281499,1789550085098371013,0.0,-0.004256799817085266,0.0,0.13287819921970367,-0.18974047899246216,9.873088836669922,-0.012052982114255428,-0.0017746968660503626,-0.3176518380641937,0.9481245875358582
1789550085101206378,1789550085109866397,0.0,-0.005320999771356583,0.0,0.10474631935358047,-0.22744916379451752,9.93833065032959,-0.012512874789536,-0.001191080897115171,-0.31764206290245056,0.9481228590011597
1789550085110052598,1789550085113195644,0.0,-0.005320999771356583,0.0,0.10474631935358047,-0.22744916379451752,9.93833065032959,-0.012512874789536,-0.001191080897115171,-0.31764206290245056,0.9481228590011597
1789550085113311013,1789550085118388548,0.0,-0.005320999771356583,0.0,0.10474631935358047,-0.22744916379451752,9.93833065032959,-0.012512874789536,-0.001191080897115171,-0.31764206290245056,0.9481228590011597
1789550085120343686,1789550085130341352,0.0,-0.005320999771356583,0.0,0.10773907601833344,-0.19393032789230347,10.017339706420898,-0.011713767424225807,-0.0023774553555995226,-0.3176589906215668,0.9481251239776611
1789550085130986398,1789550085133567322,0.0,-0.005320999771356583,0.0,0.10773907601833344,-0.19393032789230347,10.017339706420898,-0.011713767424225807,-0.0023774553555995226,-0.3176589906215668,0.9481251239776611
1789550085135459942,1789550085138552767,0.0,-0.005320999771356583,0.0,0.10773907601833344,-0.19393032789230347,10.017339706420898,-0.011713767424225807,-0.0023774553555995226,-0.3176589906215668,0.9481251239776611
1789550085139219664,1789550085151340114,0.0,-0.0063852001912891865,0.0,0.11192892491817474,-0.20889408886432648,9.930549621582031,-0.0123692462220788,-0.002021184889599681,-0.31764987111091614,0.9481207132339478
1789550085153724393,1789550085158357065,0.0,-0.0063852001912891865,0.0,0.11192892491817474,-0.20889408886432648,9.930549621582031,-0.0123692462220788,-0.002021184889599681,-0.31764987111091614,0.9481207132339478
1789550085159816376,1789550085173137086,0.0,-0.0063852001912891865,0.0,0.07721300423145294,-0.21966800093650818,10.113107681274414,-0.011178074404597282,-0.0015974064590409398,-0.3176514804363251,0.9481357336044312
1789550085175236351,1789550085177252302,0.0,-0.0063852001912891865,0.0,0.07721300423145294,-0.21966800093650818,10.113107681274414,-0.011178074404597282,-0.0015974064590409398,-0.3176514804363251,0.9481357336044312
1789550085181848493,1789550085193443432,0.0,-0.0063852001912891865,0.0,0.12030863016843796,-0.19393032789230347,9.845555305480957,-0.011737508699297905,-0.002549747470766306,-0.3176577091217041,0.9481247663497925
1789550085195394514,1789550085197204376,0.0,-0.0063852001912891865,0.0,0.12030863016843796,-0.19393032789230347,9.845555305480957,-0.011737508699297905,-0.002549747470766306,-0.3176577091217041,0.9481247663497925
1789550085200526141,1789550085202262486,0.0,-0.0063852001912891865,0.0,0.12030863016843796,-0.19393032789230347,9.845555305480957,-0.011737508699297905,-0.002549747470766306,-0.3176577091217041,0.9481247663497925
1789550085203688409,1789550085214196586,0.0,-0.0063852001912891865,0.0,0.09217676520347595,-0.22864626348018646,10.01075553894043,-0.01234990730881691,-0.0006078003207221627,-0.31763216853141785,0.948128879070282
1789550085215550788,1789550085218589946,0.0,-0.0063852001912891865,0.0,0.09217676520347595,-0.22864626348018646,10.01075553894043,-0.01234990730881691,-0.0006078003207221627,-0.31763216853141785,0.948128879070282
1789550085221312721,1789550085224297917,0.0,-0.0063852001912891865,0.0,0.09217676520347595,-0.22864626348018646,10.01075553894043,-0.01234990730881691,-0.0006078003207221627,-0.31763216853141785,0.948128879070282
1789550085226332813,1789550085235282013,-0.007449400145560503,-0.007449400145560503,0.012770400382578373,2.3744494915008545,0.36990416049957275,9.66539192199707,-0.012565740384161472,-0.0027871448546648026,-0.3176114857196808,0.9481290578842163
1789550085236155870,1789550085239266231,-0.007449400145560503,-0.007449400145560503,0.012770400382578373,2.3744494915008545,0.36990416049957275,9.66539192199707,-0.012565740384161472,-0.0027871448546648026,-0.3176114857196808,0.9481290578842163
1789550085240325012,1789550085244727095,-0.007449400145560503,-0.007449400145560503,0.012770400382578373,2.3744494915008545,0.36990416049957275,9.66539192199707,-0.012565740384161472,-0.0027871448546648026,-0.3176114857196808,0.9481290578842163
1789550085255644932,1789550085259062733,-0.005320999771356583,-0.038311198353767395,0.11812619864940643,2.0829553604125977,-0.1843535304069519,10.483012199401855,-0.013109983876347542,-0.0050062453374266624,-0.3168609142303467,0.948363721370697
1789550085261598640,1789550085266396976,-0.005320999771356583,-0.038311198353767395,0.11812619864940643,2.0829553604125977,-0.1843535304069519,10.483012199401855,-0.013109983876347542,-0.0050062453374266624,-0.3168609142303467,0.948363721370697
1789550085266046759,1789550085276292421,0.010641999542713165,-0.04895320162177086,0.2586005926132202,2.278082847595215,-0.5853822827339172,9.494206428527832,-0.014087207615375519,-0.0074345748871564865,-0.3146772086620331,0.9490606188774109
1789550085277421164,1789550085279428967,0.010641999542713165,-0.04895320162177086,0.2586005926132202,2.278082847595215,-0.5853822827339172,9.494206428527832,-0.014087207615375519,-0.0074345748871564865,-0.3146772086620331,0.9490606188774109
1789550085282488903,1789550085288574683,0.010641999542713165,-0.04895320162177086,0.2586005926132202,2.278082847595215,-0.5853822827339172,9.494206428527832,-0.014087207615375519,-0.0074345748871564865,-0.3146772086620331,0.9490606188774109
1789550085288103949,1789550085297266998,0.010641999542713165,0.023412400856614113,0.3288378119468689,1.654991865158081,-0.7242460250854492,8.55029296875,-0.01512566115707159,-0.009190562181174755,-0.31152859330177307,0.950067400932312
1789550085298476499,1789550085301200754,0.010641999542713165,0.023412400856614113,0.3288378119468689,1.654991865158081,-0.7242460250854492,8.55029296875,-0.01512566115707159,-0.009190562181174755,-0.31152859330177307,0.950067400932312
1789550085302376367,1789550085305421136,0.010641999542713165,0.023412400856614113,0.3288378119468689,1.654991865158081,-0.7242460250854492,8.55029296875,-0.01512566115707159,-0.009190562181174755,-0.31152859330177307,0.950067400932312
1789550085307248794,1789550085319378058,-0.029797600582242012,0.06172360107302666,0.2788203954696655,1.1863269805908203,-0.02753331884741783,14.323311805725098,-0.015230306424200535,-0.010566562414169312,-0.30851683020591736,0.9510337710380554
1789550085320180842,1789550085323595625,-0.029797600582242012,0.06172360107302666,0.2788203954696655,1.1863269805908203,-0.02753331884741783,14.323311805725098,-0.015230306424200535,-0.010566562414169312,-0.30851683020591736,0.9510337710380554
1789550085324531111,1789550085328430535,-0.029797600582242012,0.06172360107302666,0.2788203954696655,1.1863269805908203,-0.02753331884741783,14.323311805725098,-0.015230306424200535,-0.010566562414169312,-0.30851683020591736,0.9510337710380554
1789550085329256022,1789550085340330765,0.0,-0.103227399289608,0.09152120351791382,0.8732850551605225,0.25258827209472656,5.626373767852783,-0.015381905250251293,-0.013123838230967522,-0.3070419132709503,0.9514766335487366
1789550085340947922,1789550085344493814,0.0,-0.103227399289608,0.09152120351791382,0.8732850551605225,0.25258827209472656,5.626373767852783,-0.015381905250251293,-0.013123838230967522,-0.3070419132709503,0.9514766335487366
1789550085346345435,1789550085349727051,0.0,-0.103227399289608,0.09152120351791382,0.8732850551605225,0.25258827209472656,5.626373767852783,-0.015381905250251293,-0.013123838230967522,-0.3070419132709503,0.9514766335487366
1789550085354595664,1789550085361425710,0.017027199268341064,0.010641999542713165,0.04256799817085266,0.93254154920578,-0.7344213724136353,10.038887977600098,-0.01666676066815853,-0.015213660895824432,-0.30660396814346313,0.9515650868415833
1789550085362655414,1789550085365294301,0.017027199268341064,0.010641999542713165,0.04256799817085266,0.93254154920578,-0.7344213724136353,10.038887977600098,-0.01666676066815853,-0.015213660895824432,-0.30660396814346313,0.9515650868415833
1789550085367233457,1789550085370306041,0.017027199268341064,0.010641999542713165,0.04256799817085266,0.93254154920578,-0.7344213724136353,10.038887977600098,-0.01666676066815853,-0.015213660895824432,-0.30660396814346313,0.9515650868415833
1789550085372270882,1789550085382011867,-0.04256799817085266,0.04469640180468559,0.007449400145560503,-0.19931729137897491,0.31543606519699097,13.77324390411377,-0.014801731333136559,-0.013922424055635929,-0.30641183257102966,0.9516776204109192
1789550085383802896,1789550085386958201,-0.04256799817085266,0.04469640180468559,0.007449400145560503,-0.19931729137897491,0.31543606519699097,13.77324390411377,-0.014801731333136559,-0.013922424055635929,-0.30641183257102966,0.9516776204109192
1789550085392017200,1789550085402320732,0.009577799588441849,-0.09471379965543747,-0.015962999314069748,-0.15023615956306458,-0.7876923680305481,6.13873291015625,-0.01592499576508999,-0.01256069727241993,-0.3065192699432373,0.9516438841819763
1789550085405397612,1789550085407753429,0.009577799588441849,-0.09471379965543747,-0.015962999314069748,-0.15023615956306458,-0.7876923680305481,6.13873291015625,-0.01592499576508999,-0.01256069727241993,-0.3065192699432373,0.9516438841819763
1789550085408485695,1789550085412349990,0.009577799588441849,-0.09471379965543747,-0.015962999314069748,-0.15023615956306458,-0.7876923680305481,6.13873291015625,-0.01592499576508999,-0.01256069727241993,-0.3065192699432373,0.9516438841819763
1789550085413278754,1789550085424238572,0.019155599176883698,0.015962999314069748,0.005320999771356583,0.8283937573432922,-0.30226796865463257,9.57321548461914,-0.016756664961576462,-0.014945538714528084,-0.30656546354293823,0.9515801668167114
1789550085425839622,1789550085428492824,0.019155599176883698,0.015962999314069748,0.005320999771356583,0.8283937573432922,-0.30226796865463257,9.57321548461914,-0.016756664961576462,-0.014945538714528084,-0.30656546354293823,0.9515801668167114
1789550085429349700,1789550085433345752,0.019155599176883698,0.015962999314069748,0.005320999771356583,0.8283937573432922,-0.30226796865463257,9.57321548461914,-0.016756664961576462,-0.014945538714528084,-0.30656546354293823,0.9515801668167114
1789550085434369477,1789550085444405606,-0.038311198353767395,0.023412400856614113,0.0,-1.0169371366500854,0.3172317147254944,12.29123306274414,-0.015396475791931152,-0.012883263640105724,-0.3064979016780853,0.9516550898551941
1789550085445226945,1789550085447229582,-0.038311198353767395,0.023412400856614113,0.0,-1.0169371366500854,0.3172317147254944,12.29123306274414,-0.015396475791931152,-0.012883263640105724,-0.3064979016780853,0.9516550898551941
1789550085449572269,1789550085453700467,-0.038311198353767395,0.023412400856614113,0.0,-1.0169371366500854,0.3172317147254944,12.29123306274414,-0.015396475791931152,-0.012883263640105724,-0.3064979016780853,0.9516550898551941
1789550085453962741,1789550085465408534,0.011706200428307056,-0.05427420139312744,-0.01809139922261238,0.4495113492012024,-0.5734112858772278,7.415441036224365,-0.016841337084770203,-0.012114467099308968,-0.3066197633743286,0.9516014456748962
1789550085466432648,1789550085470499699,0.011706200428307056,-0.05427420139312744,-0.01809139922261238,0.4495113492012024,-0.5734112858772278,7.415441036224365,-0.016841337084770203,-0.012114467099308968,-0.3066197633743286,0.9516014456748962
1789550085471328538,1789550085474335660,0.011706200428307056,-0.05427420139312744,-0.01809139922261238,0.4495113492012024,-0.5734112858772278,7.415441036224365,-0.016841337084770203,-0.012114467099308968,-0.3066197633743286,0.9516014456748962
1789550085475377015,1789550085489438936,0.004256799817085266,0.04469640180468559,0.011706200428307056,0.7918822169303894,0.005386953707784414,9.247005462646484,-0.017146708443760872,-0.01411046739667654,-0.3065943717956543,0.9515767097473145
1789550085493689391,1789550085495465494,0.004256799817085266,0.04469640180468559,0.011706200428307056,0.7918822169303894,0.005386953707784414,9.247005462646484,-0.017146708443760872,-0.01411046739667654,-0.3065943717956543,0.9515767097473145
1789550085507585555,1789550085510078906,-0.026605000719428062,-0.028733400627970695,0.0,-1.357512354850769,-0.46567222476005554,11.394604682922363,-0.01614646427333355,-0.012189802713692188,-0.3064815104007721,0.9516571164131165
1789550085512242467,1789550085515989281,-0.026605000719428062,-0.028733400627970695,0.0,-1.357512354850769,-0.46567222476005554,11.394604682922363,-0.01614646427333355,-0.012189802713692188,-0.3064815104007721,0.9516571164131165
1789550085517286132,1789550085528541428,0.0,-0.053210001438856125,0.0,0.9008183479309082,-0.42437225580215454,9.01596450805664,-0.01758056879043579,-0.012187362648546696,-0.30648818612098694,0.9516295790672302
1789550085529094123,1789550085532368501,0.0,-0.053210001438856125,0.0,0.9008183479309082,-0.42437225580215454,9.01596450805664,-0.01758056879043579,-0.012187362648546696,-0.30648818612098694,0.9516295790672302
1789550085533583483,1789550085539110067,0.0,-0.053210001438856125,0.0,0.9008183479309082,-0.42437225580215454,9.01596450805664,-0.01758056879043579,-0.012187362648546696,-0.30648818612098694,0.9516295790672302
1789550085538248635,1789550085549303693,-0.012770400382578373,0.04469640180468559,0.03937539830803871,0.5722141861915588,0.2711433470249176,10.26513957977295,-0.017266608774662018,-0.013762027956545353,-0.3062189221382141,0.9517005085945129
1789550085554363099,1789550085558253764,-0.012770400382578373,0.04469640180468559,0.03937539830803871,0.5722141861915588,0.2711433470249176,10.26513957977295,-0.017266608774662018,-0.013762027956545353,-0.3062189221382141,0.9517005085945129
1789550085559397710,1789550085569467264,-0.014898800291121006,-0.06172360107302666,0.0063852001912891865,-1.3389573097229004,-0.42616790533065796,9.710283279418945,-0.01653400808572769,-0.012012368999421597,-0.3060094118118286,0.9518045783042908
1789550085570470082,1789550085573057136,-0.014898800291121006,-0.06172360107302666,0.0063852001912891865,-1.3389573097229004,-0.42616790533065796,9.710283279418945,-0.01653400808572769,-0.012012368999421597,-0.3060094118118286,0.9518045783042908
1789550085573150838,1789550085576685897,-0.014898800291121006,-0.06172360107302666,0.0063852001912891865,-1.3389573097229004,-0.42616790533065796,9.710283279418945,-0.01653400808572769,-0.012012368999421597,-0.3060094118118286,0.9518045783042908
1789550085579620761,1789550085591218384,0.01383460033684969,-0.03405439853668213,0.011706200428307056,1.246780514717102,-0.3627215623855591,9.833584785461426,-0.018313074484467506,-0.012871178798377514,-0.3059350550174713,0.9517846703529358
1789550085592321479,1789550085596711062,0.01383460033684969,-0.03405439853668213,0.011706200428307056,1.246780514717102,-0.3627215623855591,9.833584785461426,-0.018313074484467506,-0.012871178798377514,-0.3059350550174713,0.9517846703529358
1789550085600564690,1789550085612124647,-0.038311198353767395,0.05427420139312744,0.03937539830803871,0.43275195360183716,0.7134720683097839,11.154585838317871,-0.01710929535329342,-0.013870181515812874,-0.3056515157222748,0.9518841505050659
1789550085613003820,1789550085616358492,-0.038311198353767395,0.05427420139312744,0.03937539830803871,0.43275195360183716,0.7134720683097839,11.154585838317871,-0.01710929535329342,-0.013870181515812874,-0.3056515157222748,0.9518841505050659
1789550085618026060,1789550085622310477,-0.038311198353767395,0.05427420139312744,0.03937539830803871,0.43275195360183716,0.7134720683097839,11.154585838317871,-0.01710929535329342,-0.013870181515812874,-0.3056515157222748,0.9518841505050659
1789550085623915879,1789550085632421660,-0.022348200902342796,-0.10216320306062698,0.0,-0.9636661410331726,-0.9475052952766418,7.46152925491333,-0.01722542941570282,-0.012248133309185505,-0.3054880201816559,0.9519567489624023
1789550085633710363,1789550085638780140,-0.022348200902342796,-0.10216320306062698,0.0,-0.9636661410331726,-0.9475052952766418,7.46152925491333,-0.01722542941570282,-0.012248133309185505,-0.3054880201816559,0.9519567489624023
1789550085638125131,1789550085639849846,-0.022348200902342796,-0.10216320306062698,0.0,-0.9636661410331726,-0.9475052952766418,7.46152925491333,-0.01722542941570282,-0.012248133309185505,-0.3054880201816559,0.9519567489624023
1789550085642465066,1789550085653885137,0.019155599176883698,-0.019155599176883698,0.019155599176883698,1.4167687892913818,-0.2974795699119568,10.156203269958496,-0.01878855749964714,-0.014081209897994995,-0.305397629737854,0.9519308805465698
1789550085654935085,1789550085659751180,0.019155599176883698,-0.019155599176883698,0.019155599176883698,1.4167687892913818,-0.2974795699119568,10.156203269958496,-0.01878855749964714,-0.014081209897994995,-0.305397629737854,0.9519308805465698
1789550085659277353,1789550085662927540,0.019155599176883698,-0.019155599176883698,0.019155599176883698,1.4167687892913818,-0.2974795699119568,10.156203269958496,-0.01878855749964714,-0.014081209897994995,-0.305397629737854,0.9519308805465698
1789550085662202921,1789550085674549552,-0.056402601301670074,0.07023719698190689,0.03724699839949608,0.07122749835252762,0.6967126727104187,11.993753433227539,-0.016888724640011787,-0.013953124172985554,-0.30509960651397705,0.9520638585090637
1789550085674572200,1789550085677512619,-0.056402601301670074,0.07023719698190689,0.03724699839949608,0.07122749835252762,0.6967126727104187,11.993753433227539,-0.016888724640011787,-0.013953124172985554,-0.30509960651397705,0.9520638585090637
1789550085679690476,1789550085682391380,-0.056402601301670074,0.07023719698190689,0.03724699839949608,0.07122749835252762,0.6967126727104187,11.993753433227539,-0.016888724640011787,-0.013953124172985554,-0.30509960651397705,0.9520638585090637
1789550085682180161,1789550085686560281,-0.056402601301670074,0.07023719698190689,0.03724699839949608,0.07122749835252762,0.6967126727104187,11.993753433227539,-0.016888724640011787,-0.013953124172985554,-0.30509960651397705,0.9520638585090637
1789550085688616139,1789550085696453986,0.0,-0.10003480315208435,0.0,-0.6302735805511475,-1.2042834758758545,7.368155479431152,-0.017492739483714104,-0.012385977432131767,-0.3049556016921997,0.952120840549469
1789550085699843546,1789550085702373083,0.0,-0.10003480315208435,0.0,-0.6302735805511475,-1.2042834758758545,7.368155479431152,-0.017492739483714104,-0.012385977432131767,-0.3049556016921997,0.952120840549469
1789550085703612009,1789550085705293558,0.0,-0.10003480315208435,0.0,-0.6302735805511475,-1.2042834758758545,7.368155479431152,-0.017492739483714104,-0.012385977432131767,-0.3049556016921997,0.952120840549469
1789550085707423841,1789550085717393600,0.043632201850414276,-0.01383460033684969,0.019155599176883698,1.2018892765045166,-0.2364274114370346,10.519523620605469,-0.018034277483820915,-0.0151548245921731,-0.30488452315330505,0.9520934224128723
1789550085717923240,1789550085724458624,0.043632201850414276,-0.01383460033684969,0.019155599176883698,1.2018892765045166,-0.2364274114370346,10.519523620605469,-0.018034277483820915,-0.0151548245921731,-0.30488452315330505,0.9520934224128723
1789550085727871333,1789550085738188142,-0.05853100121021271,0.050017401576042175,0.02766920067369938,0.09277531504631042,0.4572925269603729,12.889782905578613,-0.016144156455993652,-0.01457362249493599,-0.30462414026260376,0.9522196650505066
1789550085740555126,1789550085742258082,-0.05853100121021271,0.050017401576042175,0.02766920067369938,0.09277531504631042,0.4572925269603729,12.889782905578613,-0.016144156455993652,-0.01457362249493599,-0.30462414026260376,0.9522196650505066
1789550085744622565,1789550085747267230,-0.05853100121021271,0.050017401576042175,0.02766920067369938,0.09277531504631042,0.4572925269603729,12.889782905578613,-0.016144156455993652,-0.01457362249493599,-0.30462414026260376,0.9522196650505066
1789550085749157664,1789550085759366364,0.017027199268341064,-0.08939280360937119,-0.0063852001912891865,-0.38486790657043457,-1.049258828163147,7.5650787353515625,-0.01730356179177761,-0.013143395073711872,-0.3045545816421509,0.9522425532341003
1789550085764618101,1789550085769343031,0.017027199268341064,-0.08939280360937119,-0.0063852001912891865,-0.38486790657043457,-1.049258828163147,7.5650787353515625,-0.01730356179177761,-0.013143395073711872,-0.3045545816421509,0.9522425532341003
1789550085770269054,1789550085779434899,0.050017401576042175,0.0,0.012770400382578373,1.061229944229126,-0.4171896278858185,9.755773544311523,-0.017755091190338135,-0.015778962522745132,-0.30450209975242615,0.9522109627723694
1789550085780163259,1789550085782774720,0.050017401576042175,0.0,0.012770400382578373,1.061229944229126,-0.4171896278858185,9.755773544311523,-0.017755091190338135,-0.015778962522745132,-0.30450209975242615,0.9522109627723694
1789550085789219809,1789550085800467623,-0.056402601301670074,0.041503798216581345,0.02128399908542633,-0.018555063754320145,0.11851298063993454,11.935693740844727,-0.016019035130739212,-0.014820540323853493,-0.30428433418273926,0.9523266553878784
1789550085802575518,1789550085805299588,-0.056402601301670074,0.041503798216581345,0.02128399908542633,-0.018555063754320145,0.11851298063993454,11.935693740844727,-0.016019035130739212,-0.014820540323853493,-0.30428433418273926,0.9523266553878784
1789550085807113117,1789550085809228382,-0.056402601301670074,0.041503798216581345,0.02128399908542633,-0.018555063754320145,0.11851298063993454,11.935693740844727,-0.016019035130739212,-0.014820540323853493,-0.30428433418273926,0.9523266553878784
1789550085812282022,1789550085821427404,0.020219799131155014,-0.05108160153031349,-0.017027199268341064,-0.2950853407382965,-1.0007762908935547,7.86854362487793,-0.01731846109032631,-0.013222167268395424,-0.3042648136615753,0.9523338675498962
1789550085821710678,1789550085823514503,0.020219799131155014,-0.05108160153031349,-0.017027199268341064,-0.2950853407382965,-1.0007762908935547,7.86854362487793,-0.01731846109032631,-0.013222167268395424,-0.3042648136615753,0.9523338675498962
1789550085824500525,1789550085826229055,0.020219799131155014,-0.05108160153031349,-0.017027199268341064,-0.2950853407382965,-1.0007762908935547,7.86854362487793,-0.01731846109032631,-0.013222167268395424,-0.3042648136615753,0.9523338675498962
1789550085827406371,1789550085830447381,0.020219799131155014,-0.05108160153031349,-0.017027199268341064,-0.2950853407382965,-1.0007762908935547,7.86854362487793,-0.01731846109032631,-0.013222167268395424,-0.3042648136615753,0.9523338675498962
1789550085832672348,1789550085842344037,0.028733400627970695,0.02128399908542633,0.025540800765156746,0.6009446382522583,0.1412578970193863,10.581772804260254,-0.016139749437570572,-0.015458369627594948,-0.30420708656311035,0.952339231967926
1789550085842580126,1789550085845341585,0.028733400627970695,0.02128399908542633,0.025540800765156746,0.6009446382522583,0.1412578970193863,10.581772804260254,-0.016139749437570572,-0.015458369627594948,-0.30420708656311035,0.952339231967926
1789550085849492838,1789550085851511049,0.028733400627970695,0.02128399908542633,0.025540800765156746,0.6009446382522583,0.1412578970193863,10.581772804260254,-0.016139749437570572,-0.015458369627594948,-0.30420708656311035,0.952339231967926
1789550085852326759,1789550085863371595,-0.02766920067369938,-0.007449400145560503,0.019155599176883698,-0.5865793824195862,-0.4704606235027313,10.752958297729492,-0.014829464256763458,-0.014734135940670967,-0.30391189455986023,0.9524661302566528
1789550085864390228,1789550085868567666,-0.02766920067369938,-0.007449400145560503,0.019155599176883698,-0.5865793824195862,-0.4704606235027313,10.752958297729492,-0.014829464256763458,-0.014734135940670967,-0.30391189455986023,0.9524661302566528
1789550085869148602,1789550085872671031,-0.02766920067369938,-0.007449400145560503,0.019155599176883698,-0.5865793824195862,-0.4704606235027313,10.752958297729492,-0.014829464256763458,-0.014734135940670967,-0.30391189455986023,0.9524661302566528
1789550085873256615,1789550085886617045,0.014898800291121006,-0.041503798216581345,-0.009577799588441849,0.11372458189725876,-0.6787561774253845,8.525153160095215,-0.016608720645308495,-0.01376246102154255,-0.3039299249649048,0.9524456858634949
1789550085889926496,1789550085893572442,0.014898800291121006,-0.041503798216581345,-0.009577799588441849,0.11372458189725876,-0.6787561774253845,8.525153160095215,-0.016608720645308495,-0.01376246102154255,-0.3039299249649048,0.9524456858634949
1789550085905451858,1789550085909630796,-0.009577799588441849,0.04788900166749954,0.015962999314069748,0.4824316203594208,0.8122329115867615,11.516708374023438,-0.0163975041359663,-0.015125907957553864,-0.30389490723609924,0.9524398446083069
1789550085910390284,1789550085912530882,-0.009577799588441849,0.04788900166749954,0.015962999314069748,0.4824316203594208,0.8122329115867615,11.516708374023438,-0.0163975041359663,-0.015125907957553864,-0.30389490723609924,0.9524398446083069
1789550085913146762,1789550085926883872,-0.017027199268341064,-0.06065940111875534,0.0,-0.7368155717849731,-0.6302735805511475,8.721478462219238,-0.015662211924791336,-0.01356369350105524,-0.3037986159324646,0.9525064826011658
1789550085927461975,1789550085931228419,-0.017027199268341064,-0.06065940111875534,0.0,-0.7368155717849731,-0.6302735805511475,8.721478462219238,-0.015662211924791336,-0.01356369350105524,-0.3037986159324646,0.9525064826011658
1789550085932293218,1789550085936744318,-0.017027199268341064,-0.06065940111875534,0.0,-0.7368155717849731,-0.6302735805511475,8.721478462219238,-0.015662211924791336,-0.01356369350105524,-0.3037986159324646,0.9525064826011658
1789550085937790803,1789550085946964203,0.01809139922261238,-0.026605000719428062,-0.02128399908542633,0.7679401636123657,-0.4824316203594208,9.18056583404541,-0.017259450629353523,-0.01365491934120655,-0.3039667010307312,0.9524238705635071
1789550085948890823,1789550085954597330,0.01809139922261238,-0.026605000719428062,-0.02128399908542633,0.7679401636123657,-0.4824316203594208,9.18056583404541,-0.017259450629353523,-0.01365491934120655,-0.3039667010307312,0.9524238705635071
1789550085953930766,1789550085956482784,0.01809139922261238,-0.026605000719428062,-0.02128399908542633,0.7679401636123657,-0.4824316203594208,9.18056583404541,-0.017259450629353523,-0.01365491934120655,-0.3039667010307312,0.9524238705635071
1789550085957584953,1789550085968014612,-0.043632201850414276,0.06917300075292587,0.012770400382578373,0.5309142470359802,0.8355763554573059,12.000935554504395,-0.015605449676513672,-0.0142782898619771,-0.3040250837802887,0.9524246454238892
1789550085968291127,1789550085971039975,-0.043632201850414276,0.06917300075292587,0.012770400382578373,0.5309142470359802,0.8355763554573059,12.000935554504395,-0.015605449676513672,-0.0142782898619771,-0.3040250837802887,0.9524246454238892
1789550085972266012,1789550085974376481,-0.043632201850414276,0.06917300075292587,0.012770400382578373,0.5309142470359802,0.8355763554573059,12.000935554504395,-0.015605449676513672,-0.0142782898619771,-0.3040250837802887,0.9524246454238892
1789550085977599007,1789550085988579658,0.0,-0.09471379965543747,-0.0063852001912891865,-0.9145850539207458,-1.0229226350784302,7.4770917892456055,-0.016361035406589508,-0.012594862841069698,-0.30395543575286865,0.9524579048156738
1789550085989520107,1789550085991360117,0.0,-0.09471379965543747,-0.0063852001912891865,-0.9145850539207458,-1.0229226350784302,7.4770917892456055,-0.016361035406589508,-0.012594862841069698,-0.30395543575286865,0.9524579048156738
1789550085993609306,1789550085996693519,0.0,-0.09471379965543747,-0.0063852001912891865,-0.9145850539207458,-1.0229226350784302,7.4770917892456055,-0.016361035406589508,-0.012594862841069698,-0.30395543575286865,0.9524579048156738
1789550085997308084,1789550086009710873,0.043632201850414276,-0.014898800291121006,0.0,1.0510544776916504,-0.33758243918418884,10.074800491333008,-0.017720233649015427,-0.014558571390807629,-0.3040101230144501,0.9523882269859314
1789550086010357305,1789550086013543542,0.043632201850414276,-0.014898800291121006,0.0,1.0510544776916504,-0.33758243918418884,10.074800491333008,-0.017720233649015427,-0.014558571390807629,-0.3040101230144501,0.9523882269859314
1789550086014130420,1789550086016773945,0.043632201850414276,-0.014898800291121006,0.0,1.0510544776916504,-0.33758243918418884,10.074800491333008,-0.017720233649015427,-0.014558571390807629,-0.3040101230144501,0.9523882269859314
1789550086017796074,1789550086030965347,-0.04469640180468559,0.06385199725627899,0.017027199268341064,0.058059390634298325,0.5267243385314941,13.91510009765625,-0.015877097845077515,-0.014448985457420349,-0.30392712354660034,0.952448844909668
1789550086031885830,1789550086035476763,-0.04469640180468559,0.06385199725627899,0.017027199268341064,0.058059390634298325,0.5267243385314941,13.91510009765625,-0.015877097845077515,-0.014448985457420349,-0.30392712354660034,0.952448844909668
1789550086036493874,1789550086040498670,-0.04469640180468559,0.06385199725627899,0.017027199268341064,0.058059390634298325,0.5267243385314941,13.91510009765625,-0.015877097845077515,-0.014448985457420349,-0.30392712354660034,0.952448844909668
1789550086041419949,1789550086054494816,0.012770400382578373,-0.09790640324354172,-0.0063852001912891865,-0.30466216802597046,-1.050455927848816,7.267599105834961,-0.016873294487595558,-0.013022650964558125,-0.3038801848888397,0.9524673223495483
1789550086056869254,1789550086063001306,0.012770400382578373,-0.09790640324354172,-0.0063852001912891865,-0.30466216802597046,-1.050455927848816,7.267599105834961,-0.016873294487595558,-0.013022650964558125,-0.3038801848888397,0.9524673223495483
1789550086059271172,1789550086064040694,0.012770400382578373,-0.09790640324354172,-0.0063852001912891865,-0.30466216802597046,-1.050455927848816,7.267599105834961,-0.016873294487595558,-0.013022650964558125,-0.3038801848888397,0.9524673223495483
1789550086062435668,1789550086073669681,0.04788900166749954,-0.01383460033684969,-0.004256799817085266,1.2449848651885986,-0.08738835901021957,9.684545516967773,-0.017215054482221603,-0.015910178422927856,-0.3039722442626953,0.9523879289627075
1789550086073602683,1789550086075709143,0.04788900166749954,-0.01383460033684969,-0.004256799817085266,1.2449848651885986,-0.08738835901021957,9.684545516967773,-0.017215054482221603,-0.015910178422927856,-0.3039722442626953,0.9523879289627075
1789550086077456092,1789550086079561794,0.04788900166749954,-0.01383460033684969,-0.004256799817085266,1.2449848651885986,-0.08738835901021957,9.684545516967773,-0.017215054482221603,-0.015910178422927856,-0.3039722442626953,0.9523879289627075
1789550086083690717,1789550086094273057,-0.023412400856614113,0.035118598490953445,0.004256799817085266,-0.4758475720882416,0.2669534981250763,13.262680053710938,-0.01535888109356165,-0.014547646045684814,-0.30396008491516113,0.9524453282356262
1789550086094523700,1789550086096632716,-0.023412400856614113,0.035118598490953445,0.004256799817085266,-0.4758475720882416,0.2669534981250763,13.262680053710938,-0.01535888109356165,-0.014547646045684814,-0.30396008491516113,0.9524453282356262
1789550086098886119,1789550086101870063,-0.023412400856614113,0.035118598490953445,0.004256799817085266,-0.4758475720882416,0.2669534981250763,13.262680053710938,-0.01535888109356165,-0.014547646045684814,-0.30396008491516113,0.9524453282356262
1789550086105049356,1789550086114798674,0.02447660081088543,-0.06278780102729797,-0.017027199268341064,0.07481880486011505,-0.9074024558067322,7.434594631195068,-0.016600271686911583,-0.013301800936460495,-0.30401602387428284,0.9524248242378235
1789550086115397997,1789550086117641621,0.02447660081088543,-0.06278780102729797,-0.017027199268341064,0.07481880486011505,-0.9074024558067322,7.434594631195068,-0.016600271686911583,-0.013301800936460495,-0.30401602387428284,0.9524248242378235
1789550086118224185,1789550086121657250,0.02447660081088543,-0.06278780102729797,-0.017027199268341064,0.07481880486011505,-0.9074024558067322,7.434594631195068,-0.016600271686911583,-0.013301800936460495,-0.30401602387428284,0.9524248242378235
1789550086122417773,1789550086125972485,0.02447660081088543,-0.06278780102729797,-0.017027199268341064,0.07481880486011505,-0.9074024558067322,7.434594631195068,-0.016600271686911583,-0.013301800936460495,-0.30401602387428284,0.9524248242378235
1789550086127874505,1789550086136796598,0.038311198353767395,0.03405439853668213,-0.005320999771356583,0.6177040338516235,-0.05267243832349777,9.870096206665039,-0.01638079062104225,-0.01565004698932171,-0.304115891456604,0.9523610472679138
1789550086136593342,1789550086138883411,0.038311198353767395,0.03405439853668213,-0.005320999771356583,0.6177040338516235,-0.05267243832349777,9.870096206665039,-0.01638079062104225,-0.01565004698932171,-0.304115891456604,0.9523610472679138
1789550086139518084,1789550086142652174,0.038311198353767395,0.03405439853668213,-0.005320999771356583,0.6177040338516235,-0.05267243832349777,9.870096206665039,-0.01638079062104225,-0.01565004698932171,-0.304115891456604,0.9523610472679138
1789550086145465029,1789550086157455472,0.0,0.0,-0.0063852001912891865,-0.8277952075004578,-0.35913026332855225,12.615647315979004,-0.014909111894667149,-0.013794059865176678,-0.30415084958076477,0.9524027705192566
1789550086159317789,1789550086162703300,0.0,0.0,-0.0063852001912891865,-0.8277952075004578,-0.35913026332855225,12.615647315979004,-0.014909111894667149,-0.013794059865176678,-0.30415084958076477,0.9524027705192566
1789550086165145681,1789550086177694465,0.028733400627970695,-0.05746680125594139,-0.023412400856614113,0.2902969419956207,-0.5440823435783386,7.453149795532227,-0.015859976410865784,-0.012834892608225346,-0.30427810549736023,0.9523602724075317
1789550086180092162,1789550086182456840,0.028733400627970695,-0.05746680125594139,-0.023412400856614113,0.2902969419956207,-0.5440823435783386,7.453149795532227,-0.015859976410865784,-0.012834892608225346,-0.30427810549736023,0.9523602724075317
1789550086186534912,1789550086198472912,0.011706200428307056,0.03937539830803871,-0.007449400145560503,0.5237315893173218,0.19871874153614044,9.739013671875,-0.015695005655288696,-0.014520623721182346,-0.3044140934944153,0.952295184135437
1789550086199543132,1789550086203835904,0.011706200428307056,0.03937539830803871,-0.007449400145560503,0.5237315893173218,0.19871874153614044,9.739013671875,-0.015695005655288696,-0.014520623721182346,-0.3044140934944153,0.952295184135437
1789550086205582057,1789550086208420523,0.011706200428307056,0.03937539830803871,-0.007449400145560503,0.5237315893173218,0.19871874153614044,9.739013671875,-0.015695005655288696,-0.014520623721182346,-0.3044140934944153,0.952295184135437
1789550086209562298,1789550086220901457,0.01383460033684969,-0.056402601301670074,-0.019155599176883698,-1.3317747116088867,-0.228047713637352,10.580575942993164,-0.014570784755051136,-0.012834349647164345,-0.3045032322406769,0.9523088932037354
1789550086224247431,1789550086226921678,0.01383460033684969,-0.056402601301670074,-0.019155599176883698,-1.3317747116088867,-0.228047713637352,10.580575942993164,-0.014570784755051136,-0.012834349647164345,-0.3045032322406769,0.9523088932037354
1789550086229718441,1789550086241078396,0.017027199268341064,-0.01809139922261238,-0.01809139922261238,1.3994108438491821,-0.47465047240257263,8.941145896911621,-0.016335491091012955,-0.014016812667250633,-0.304691880941391,0.9522031545639038
1789550086242790827,1789550086246031100,0.017027199268341064,-0.01809139922261238,-0.01809139922261238,1.3994108438491821,-0.47465047240257263,8.941145896911621,-0.016335491091012955,-0.014016812667250633,-0.304691880941391,0.9522031545639038
1789550086251588700,1789550086261510515,0.0,0.09258539974689484,-0.012770400382578373,0.27054479718208313,0.3902548849582672,10.381258010864258,-0.01612677425146103,-0.014538519084453583,-0.3048393726348877,0.9521516561508179
1789550086264579958,1789550086269549865,0.0,0.09258539974689484,-0.012770400382578373,0.27054479718208313,0.3902548849582672,10.381258010864258,-0.01612677425146103,-0.014538519084453583,-0.3048393726348877,0.9521516561508179
1789550086270364017,1789550086282477180,0.014898800291121006,-0.07981500029563904,-0.01809139922261238,-1.2288240194320679,-0.7649474143981934,9.367314338684082,-0.015898987650871277,-0.012672673910856247,-0.3049832880496979,0.9521361589431763
1789550086283386478,1789550086286766100,0.014898800291121006,-0.07981500029563904,-0.01809139922261238,-1.2288240194320679,-0.7649474143981934,9.367314338684082,-0.015898987650871277,-0.012672673910856247,-0.3049832880496979,0.9521361589431763
1789550086292334607,1789550086303495511,0.01383460033684969,-0.031925998628139496,-0.007449400145560503,1.6807295083999634,-0.386663556098938,9.086593627929688,-0.016670821234583855,-0.015504781156778336,-0.30508482456207275,0.9520485401153564
1789550086307557009,1789550086310358772,0.01383460033684969,-0.031925998628139496,-0.007449400145560503,1.6807295083999634,-0.386663556098938,9.086593627929688,-0.016670821234583855,-0.015504781156778336,-0.30508482456207275,0.9520485401153564
1789550086312303661,1789550086323549285,-0.012770400382578373,0.06917300075292587,0.0,-0.23044191300868988,-0.2795230448246002,12.644975662231445,-0.014938424341380596,-0.014461148530244827,-0.3051500618457794,0.9520726799964905
1789550086323920852,1789550086326364825,-0.012770400382578373,0.06917300075292587,0.0,-0.23044191300868988,-0.2795230448246002,12.644975662231445,-0.014938424341380596,-0.014461148530244827,-0.3051500618457794,0.9520726799964905
1789550086327781725,1789550086330651171,-0.012770400382578373,0.06917300075292587,0.0,-0.23044191300868988,-0.2795230448246002,12.644975662231445,-0.014938424341380596,-0.014461148530244827,-0.3051500618457794,0.9520726799964905
1789550086332319307,1789550086344358342,-0.005320999771356583,-0.09577800333499908,-0.015962999314069748,-0.20769698917865753,-0.2603694200515747,6.7462615966796875,-0.01509879995137453,-0.012825233861804008,-0.30524784326553345,0.9520623683929443
1789550086344626911,1789550086347394063,-0.005320999771356583,-0.09577800333499908,-0.015962999314069748,-0.20769698917865753,-0.2603694200515747,6.7462615966796875,-0.01509879995137453,-0.012825233861804008,-0.30524784326553345,0.9520623683929443
1789550086349788296,1789550086353029902,-0.005320999771356583,-0.09577800333499908,-0.015962999314069748,-0.20769698917865753,-0.2603694200515747,6.7462615966796875,-0.01509879995137453,-0.012825233861804008,-0.30524784326553345,0.9520623683929443
1789550086354321471,1789550086366797053,0.004256799817085266,0.01383460033684969,-0.004256799817085266,1.9147627353668213,-0.4345476031303406,10.419565200805664,-0.016216661781072617,-0.015194918029010296,-0.3053247630596161,0.9519843459129333
1789550086367440153,1789550086371223341,0.004256799817085266,0.01383460033684969,-0.004256799817085266,1.9147627353668213,-0.4345476031303406,10.419565200805664,-0.016216661781072617,-0.015194918029010296,-0.3053247630596161,0.9519843459129333
1789550086372286451,1789550086375714739,0.004256799817085266,0.01383460033684969,-0.004256799817085266,1.9147627353668213,-0.4345476031303406,10.419565200805664,-0.016216661781072617,-0.015194918029010296,-0.3053247630596161,0.9519843459129333
1789550086385986807,1789550086389926752,-0.020219799131155014,0.053210001438856125,-0.0063852001912891865,-0.656609833240509,-0.01735796220600605,13.326126098632812,-0.01452008355408907,-0.013294517993927002,-0.30538055300712585,0.9520221948623657
1789550086390512482,1789550086393451168,-0.020219799131155014,0.053210001438856125,-0.0063852001912891865,-0.656609833240509,-0.01735796220600605,13.326126098632812,-0.01452008355408907,-0.013294517993927002,-0.30538055300712585,0.9520221948623657
1789550086407605275,1789550086410446148,0.005320999771356583,-0.09471379965543747,-0.015962999314069748,-0.4034229815006256,-0.23762451112270355,5.784391403198242,-0.014757380820810795,-0.011811686679720879,-0.3055042624473572,0.9519984722137451
1789550086413266373,1789550086418230965,0.005320999771356583,-0.09471379965543747,-0.015962999314069748,-0.4034229815006256,-0.23762451112270355,5.784391403198242,-0.014757380820810795,-0.011811686679720879,-0.3055042624473572,0.9519984722137451
1789550086418619255,1789550086429772787,0.007449400145560503,0.035118598490953445,-0.009577799588441849,1.3030441999435425,-0.28131869435310364,10.43692398071289,-0.015499584376811981,-0.014033774845302105,-0.3056369423866272,0.9519139528274536
1789550086434980339,1789550086438454570,0.007449400145560503,0.035118598490953445,-0.009577799588441849,1.3030441999435425,-0.28131869435310364,10.43692398071289,-0.015499584376811981,-0.014033774845302105,-0.3056369423866272,0.9519139528274536
1789550086438382720,1789550086449415866,0.0,0.022348200902342796,-0.004256799817085266,-1.4095861911773682,-0.3687070608139038,13.696030616760254,-0.014092136174440384,-0.011914721690118313,-0.3056962192058563,0.9519456624984741
1789550086455849987,1789550086458434253,0.0,0.022348200902342796,-0.004256799817085266,-1.4095861911773682,-0.3687070608139038,13.696030616760254,-0.014092136174440384,-0.011914721690118313,-0.3056962192058563,0.9519456624984741
1789550086460189091,1789550086471722747,0.0,-0.08087919652462006,-0.015962999314069748,0.4255693554878235,-0.08140285313129425,6.754043102264404,-0.014547987841069698,-0.011851796880364418,-0.30581632256507874,0.9519011378288269
1789550086472239219,1789550086475383123,0.0,-0.08087919652462006,-0.015962999314069748,0.4255693554878235,-0.08140285313129425,6.754043102264404,-0.014547987841069698,-0.011851796880364418,-0.30581632256507874,0.9519011378288269
1789550086477499176,1789550086479364752,0.0,-0.08087919652462006,-0.015962999314069748,0.4255693554878235,-0.08140285313129425,6.754043102264404,-0.014547987841069698,-0.011851796880364418,-0.30581632256507874,0.9519011378288269
1789550086483333178,1789550086491411324,0.008513599634170532,0.05214580148458481,-0.005320999771356583,1.1863269805908203,-0.1646013706922531,10.098143577575684,-0.015497861430048943,-0.013683541677892208,-0.3059220612049103,0.9518275260925293
1789550086491712152,1789550086493507933,0.008513599634170532,0.05214580148458481,-0.005320999771356583,1.1863269805908203,-0.1646013706922531,10.098143577575684,-0.015497861430048943,-0.013683541677892208,-0.3059220612049103,0.9518275260925293
1789550086498631042,1789550086500365287,0.008513599634170532,0.05214580148458481,-0.005320999771356583,1.1863269805908203,-0.1646013706922531,10.098143577575684,-0.015497861430048943,-0.013683541677892208,-0.3059220612049103,0.9518275260925293
1789550086502754428,1789550086512465154,0.008513599634170532,-0.03405439853668213,0.0,-1.217451572418213,-0.3758896589279175,12.148179054260254,-0.014434530399739742,-0.011744638904929161,-0.30592209100723267,0.9518702030181885
1789550086512925386,1789550086515133364,0.008513599634170532,-0.03405439853668213,0.0,-1.217451572418213,-0.3758896589279175,12.148179054260254,-0.014434530399739742,-0.011744638904929161,-0.30592209100723267,0.9518702030181885
1789550086517618132,1789550086521600928,0.008513599634170532,-0.03405439853668213,0.0,-1.217451572418213,-0.3758896589279175,12.148179054260254,-0.014434530399739742,-0.011744638904929161,-0.30592209100723267,0.9518702030181885
1789550086522514763,1789550086533787183,0.011706200428307056,-0.043632201850414276,0.0,0.9038110971450806,-0.477643221616745,7.923011779785156,-0.014837358146905899,-0.011536695063114166,-0.3058995008468628,0.9518737196922302
1789550086535067881,1789550086538670129,0.011706200428307056,-0.043632201850414276,0.0,0.9038110971450806,-0.477643221616745,7.923011779785156,-0.014837358146905899,-0.011536695063114166,-0.3058995008468628,0.9518737196922302
1789550086539551001,1789550086543304709,0.011706200428307056,-0.043632201850414276,0.0,0.9038110971450806,-0.477643221616745,7.923011779785156,-0.014837358146905899,-0.011536695063114166,-0.3058995008468628,0.9518737196922302
1789550086554950566,1789550086557434483,0.010641999542713165,0.0904569998383522,-0.019155599176883698,1.1773486137390137,0.2256534993648529,10.301053047180176,-0.01491378154605627,-0.013001383282244205,-0.306078165769577,0.951796293258667
1789550086557821143,1789550086561703626,0.010641999542713165,0.0904569998383522,-0.019155599176883698,1.1773486137390137,0.2256534993648529,10.301053047180176,-0.01491378154605627,-0.013001383282244205,-0.306078165769577,0.951796293258667
1789550086562279634,1789550086576717550,0.0,-0.04576060175895691,-0.007449400145560503,-0.9265560507774353,-0.8152256608009338,10.65479564666748,-0.014540118165314198,-0.01084194891154766,-0.30619630217552185,0.9517910480499268
1789550086576852103,1789550086580042358,0.0,-0.04576060175895691,-0.007449400145560503,-0.9265560507774353,-0.8152256608009338,10.65479564666748,-0.014540118165314198,-0.01084194891154766,-0.30619630217552185,0.9517910480499268
1789550086583039173,1789550086584556811,0.0,-0.04576060175895691,-0.007449400145560503,-0.9265560507774353,-0.8152256608009338,10.65479564666748,-0.014540118165314198,-0.01084194891154766,-0.30619630217552185,0.9517910480499268
1789550086589004247,1789550086596607105,0.015962999314069748,-0.02128399908542633,0.0,0.871489405632019,-0.26156651973724365,8.511985778808594,-0.014607077464461327,-0.013450437225401402,-0.3062053918838501,0.9517538547515869
1789550086597988635,1789550086600690325,0.015962999314069748,-0.02128399908542633,0.0,0.871489405632019,-0.26156651973724365,8.511985778808594,-0.014607077464461327,-0.013450437225401402,-0.3062053918838501,0.9517538547515869
1789550086602250648,1789550086605440811,0.015962999314069748,-0.02128399908542633,0.0,0.871489405632019,-0.26156651973724365,8.511985778808594,-0.014607077464461327,-0.013450437225401402,-0.3062053918838501,0.9517538547515869
1789550086607247092,1789550086618799006,-0.008513599634170532,0.10216320306062698,-0.005320999771356583,0.3734954595565796,0.36092591285705566,10.894814491271973,-0.014227458275854588,-0.014168515801429749,-0.3062928020954132,0.9517210125923157
1789550086619083631,1789550086623146500,-0.008513599634170532,0.10216320306062698,-0.005320999771356583,0.3734954595565796,0.36092591285705566,10.894814491271973,-0.014227458275854588,-0.014168515801429749,-0.3062928020954132,0.9517210125923157
1789550086623992243,1789550086634864189,-0.008513599634170532,0.10216320306062698,-0.005320999771356583,0.3734954595565796,0.36092591285705566,10.894814491271973,-0.014227458275854588,-0.014168515801429749,-0.3062928020954132,0.9517210125923157
1789550086628216868,1789550086638492973,-0.005320999771356583,-0.02128399908542633,-0.008513599634170532,-0.4920084476470947,-0.6344634294509888,10.10173511505127,-0.013939693570137024,-0.01189627405256033,-0.30637556314468384,0.9517297744750977
1789550086639658340,1789550086642407604,-0.005320999771356583,-0.02128399908542633,-0.008513599634170532,-0.4920084476470947,-0.6344634294509888,10.10173511505127,-0.013939693570137024,-0.01189627405256033,-0.30637556314468384,0.9517297744750977
1789550086644608933,1789550086647353178,-0.005320999771356583,-0.02128399908542633,-0.008513599634170532,-0.4920084476470947,-0.6344634294509888,10.10173511505127,-0.013939693570137024,-0.01189627405256033,-0.30637556314468384,0.9517297744750977
1789550086648388363,1789550086659458990,0.011706200428307056,0.022348200902342796,-0.014898800291121006,1.179144263267517,-0.4034229815006256,9.262567520141602,-0.01521781925112009,-0.013778680935502052,-0.30646371841430664,0.9516564607620239
1789550086660255401,1789550086664080255,0.011706200428307056,0.022348200902342796,-0.014898800291121006,1.179144263267517,-0.4034229815006256,9.262567520141602,-0.01521781925112009,-0.013778680935502052,-0.30646371841430664,0.9516564607620239
1789550086664596505,1789550086668543228,0.011706200428307056,0.022348200902342796,-0.014898800291121006,1.179144263267517,-0.4034229815006256,9.262567520141602,-0.01521781925112009,-0.013778680935502052,-0.30646371841430664,0.9516564607620239
1789550086669552357,1789550086680138253,-0.026605000719428062,0.09471379965543747,-0.01383460033684969,-0.16160860657691956,0.035913024097681046,12.2990140914917,-0.013917052187025547,-0.013512189500033855,-0.3066672682762146,0.9516145586967468
1789550086680164085,1789550086682656428,-0.026605000719428062,0.09471379965543747,-0.01383460033684969,-0.16160860657691956,0.035913024097681046,12.2990140914917,-0.013917052187025547,-0.013512189500033855,-0.3066672682762146,0.9516145586967468
1789550086684623317,1789550086688953662,-0.026605000719428062,0.09471379965543747,-0.01383460033684969,-0.16160860657691956,0.035913024097681046,12.2990140914917,-0.013917052187025547,-0.013512189500033855,-0.3066672682762146,0.9516145586967468
1789550086690471190,1789550086700882977,0.014898800291121006,-0.04043959826231003,-0.012770400382578373,-0.2322375625371933,-0.590170681476593,8.157045364379883,-0.014202287420630455,-0.011425526812672615,-0.3067719042301178,0.9516040086746216
1789550086703605723,1789550086706969327,0.014898800291121006,-0.04043959826231003,-0.012770400382578373,-0.2322375625371933,-0.590170681476593,8.157045364379883,-0.014202287420630455,-0.011425526812672615,-0.3067719042301178,0.9516040086746216
1789550086707339227,1789550086710506316,0.014898800291121006,-0.04043959826231003,-0.012770400382578373,-0.2322375625371933,-0.590170681476593,8.157045364379883,-0.014202287420630455,-0.011425526812672615,-0.3067719042301178,0.9516040086746216
1789550086712705349,1789550086721646646,0.03618279844522476,0.03937539830803871,-0.020219799131155014,1.3503297567367554,-0.1496376097202301,11.022305488586426,-0.014594252221286297,-0.013481657020747662,-0.3069600462913513,0.9515104293823242
1789550086722241653,1789550086724886085,0.03618279844522476,0.03937539830803871,-0.020219799131155014,1.3503297567367554,-0.1496376097202301,11.022305488586426,-0.014594252221286297,-0.013481657020747662,-0.3069600462913513,0.9515104293823242
1789550086727789939,1789550086732214634,0.03618279844522476,0.03937539830803871,-0.020219799131155014,1.3503297567367554,-0.1496376097202301,11.022305488586426,-0.014594252221286297,-0.013481657020747662,-0.3069600462913513,0.9515104293823242
1789550086732852641,1789550086742807289,-0.03405439853668213,0.025540800765156746,-0.004256799817085266,-0.4824316203594208,0.06883329898118973,12.585121154785156,-0.013107556849718094,-0.013179554603993893,-0.30709320306777954,0.9514933824539185
1789550086743568997,1789550086745649032,-0.03405439853668213,0.025540800765156746,-0.004256799817085266,-0.4824316203594208,0.06883329898118973,12.585121154785156,-0.013107556849718094,-0.013179554603993893,-0.30709320306777954,0.9514933824539185
1789550086751011784,1789550086763609364,0.012770400382578373,-0.06278780102729797,-0.011706200428307056,-0.14724339544773102,-0.5770025849342346,6.736086368560791,-0.014345245435833931,-0.01169964112341404,-0.3070955276489258,0.9514940977096558
1789550086765262592,1789550086770316887,0.012770400382578373,-0.06278780102729797,-0.011706200428307056,-0.14724339544773102,-0.5770025849342346,6.736086368560791,-0.014345245435833931,-0.01169964112341404,-0.3070955276489258,0.9514940977096558
1789550086769995467,1789550086773814118,0.012770400382578373,-0.06278780102729797,-0.011706200428307056,-0.14724339544773102,-0.5770025849342346,6.736086368560791,-0.014345245435833931,-0.01169964112341404,-0.3070955276489258,0.9514940977096558
1789550086774388441,1789550086785605658,0.03618279844522476,0.0713014006614685,-0.010641999542713165,1.1180921792984009,-0.21428105235099792,10.285490036010742,-0.01435022335499525,-0.013627339154481888,-0.3072400391101837,0.9514216184616089
1789550086789688804,1789550086792948632,0.03618279844522476,0.0713014006614685,-0.010641999542713165,1.1180921792984009,-0.21428105235099792,10.285490036010742,-0.01435022335499525,-0.013627339154481888,-0.3072400391101837,0.9514216184616089
1789550086805608656,1789550086808401196,-0.028733400627970695,0.0063852001912891865,0.0,-1.3952209949493408,-0.10714052617549896,12.202048301696777,-0.013112525455653667,-0.011350211687386036,-0.3072541654109955,0.9514649510383606
1789550086809614100,1789550086813152163,-0.028733400627970695,0.0063852001912891865,0.0,-1.3952209949493408,-0.10714052617549896,12.202048301696777,-0.013112525455653667,-0.011350211687386036,-0.3072541654109955,0.9514649510383606
1789550086813841502,1789550086826553895,0.012770400382578373,-0.05853100121021271,-0.009577799588441849,0.40940847992897034,-0.4279635548591614,7.09342098236084,-0.014935947023332119,-0.011044292710721493,-0.30724817514419556,0.9514434933662415
1789550086827846075,1789550086831516766,0.012770400382578373,-0.05853100121021271,-0.009577799588441849,0.40940847992897034,-0.4279635548591614,7.09342098236084,-0.014935947023332119,-0.011044292710721493,-0.30724817514419556,0.9514434933662415
1789550086832921647,1789550086837148864,0.012770400382578373,-0.05853100121021271,-0.009577799588441849,0.40940847992897034,-0.4279635548591614,7.09342098236084,-0.014935947023332119,-0.011044292710721493,-0.30724817514419556,0.9514434933662415
1789550086838131698,1789550086848425969,0.023412400856614113,0.08087919652462006,-0.008513599634170532,1.046864628791809,0.16101005673408508,10.26274585723877,-0.014568231999874115,-0.012794675305485725,-0.30738258361816406,0.9513840079307556
1789550086850623928,1789550086855384895,0.023412400856614113,0.08087919652462006,-0.008513599634170532,1.046864628791809,0.16101005673408508,10.26274585723877,-0.014568231999874115,-0.012794675305485725,-0.30738258361816406,0.9513840079307556
1789550086855424876,1789550086857638983,0.023412400856614113,0.08087919652462006,-0.008513599634170532,1.046864628791809,0.16101005673408508,10.26274585723877,-0.014568231999874115,-0.012794675305485725,-0.30738258361816406,0.9513840079307556
1789550086859897570,1789550086868853662,-0.012770400382578373,-0.03405439853668213,-0.007449400145560503,-1.0001777410507202,-0.436343252658844,11.636418342590332,-0.013616588898003101,-0.010738305747509003,-0.3074365556240082,0.9514061212539673
1789550086869220211,1789550086872017529,-0.012770400382578373,-0.03405439853668213,-0.007449400145560503,-1.0001777410507202,-0.436343252658844,11.636418342590332,-0.013616588898003101,-0.010738305747509003,-0.3074365556240082,0.9514061212539673
1789550086872270765,1789550086876987585,-0.012770400382578373,-0.03405439853668213,-0.007449400145560503,-1.0001777410507202,-0.436343252658844,11.636418342590332,-0.013616588898003101,-0.010738305747509003,-0.3074365556240082,0.9514061212539673
1789550086889611516,1789550086891457575,0.01383460033684969,-0.050017401576042175,-0.02447660081088543,0.42856210470199585,-0.3908534348011017,8.3306245803833,-0.01591232232749462,-0.011591903865337372,-0.30757662653923035,0.9513149857521057
1789550086894711940,1789550086896342095,0.01383460033684969,-0.050017401576042175,-0.02447660081088543,0.42856210470199585,-0.3908534348011017,8.3306245803833,-0.01591232232749462,-0.011591903865337372,-0.30757662653923035,0.9513149857521057
1789550086897586757,1789550086911441332,0.0,0.09258539974689484,-0.023412400856614113,0.8744821548461914,0.5752069354057312,11.064204216003418,-0.01506029348820448,-0.012968487106263638,-0.30788862705230713,0.9512102603912354
1789550086911759530,1789550086916244631,0.0,0.09258539974689484,-0.023412400856614113,0.8744821548461914,0.5752069354057312,11.064204216003418,-0.01506029348820448,-0.012968487106263638,-0.30788862705230713,0.9512102603912354
1789550086916298630,1789550086920431794,0.0,0.09258539974689484,-0.023412400856614113,0.8744821548461914,0.5752069354057312,11.064204216003418,-0.01506029348820448,-0.012968487106263638,-0.30788862705230713,0.9512102603912354
1789550086921455145,1789550086931508662,0.0,-0.038311198353767395,-0.01809139922261238,-0.8397662043571472,-0.6763619780540466,9.317035675048828,-0.014578971080482006,-0.010841130279004574,-0.30807164311408997,0.9511851668357849
1789550086932315184,1789550086938288961,0.0,-0.038311198353767395,-0.01809139922261238,-0.8397662043571472,-0.6763619780540466,9.317035675048828,-0.014578971080482006,-0.010841130279004574,-0.30807164311408997,0.9511851668357849
1789550086937612270,1789550086940499383,0.0,-0.038311198353767395,-0.01809139922261238,-0.8397662043571472,-0.6763619780540466,9.317035675048828,-0.014578971080482006,-0.010841130279004574,-0.30807164311408997,0.9511851668357849
1789550086953635027,1789550086956853097,0.019155599176883698,-0.011706200428307056,-0.023412400856614113,0.656609833240509,-0.3196259140968323,8.629899978637695,-0.016405368223786354,-0.012215843424201012,-0.3082546889781952,0.9510793685913086
1789550086957564454,1789550086959800505,0.019155599176883698,-0.011706200428307056,-0.023412400856614113,0.656609833240509,-0.3196259140968323,8.629899978637695,-0.016405368223786354,-0.012215843424201012,-0.3082546889781952,0.9510793685913086
1789550086962227978,1789550086974484231,-0.031925998628139496,0.0713014006614685,-0.01809139922261238,0.1256955862045288,0.5033808946609497,10.827776908874512,-0.015059100463986397,-0.012849628925323486,-0.30851754546165466,0.951008141040802
1789550086974594915,1789550086978546008,-0.031925998628139496,0.0713014006614685,-0.01809139922261238,0.1256955862045288,0.5033808946609497,10.827776908874512,-0.015059100463986397,-0.012849628925323486,-0.30851754546165466,0.951008141040802
1789550086979681375,1789550086985676727,-0.031925998628139496,0.0713014006614685,-0.01809139922261238,0.1256955862045288,0.5033808946609497,10.827776908874512,-0.015059100463986397,-0.012849628925323486,-0.30851754546165466,0.951008141040802
1789550086985540526,1789550086997018608,-0.008513599634170532,-0.05108160153031349,-0.019155599176883698,-0.45669397711753845,-0.8649053573608398,8.718484878540039,-0.015462400391697884,-0.010850848630070686,-0.30868417024612427,0.9509725570678711
1789550086994369120,1789550086997212067,-0.008513599634170532,-0.05108160153031349,-0.019155599176883698,-0.45669397711753845,-0.8649053573608398,8.718484878540039,-0.015462400391697884,-0.010850848630070686,-0.30868417024612427,0.9509725570678711
1789550086998769075,1789550087001428729,-0.008513599634170532,-0.05108160153031349,-0.019155599176883698,-0.45669397711753845,-0.8649053573608398,8.718484878540039,-0.015462400391697884,-0.010850848630070686,-0.30868417024612427,0.9509725570678711
1789550087002331694,1789550087014607015,0.023412400856614113,0.011706200428307056,-0.031925998628139496,1.0103530883789062,-0.21428105235099792,8.995614051818848,-0.016793642193078995,-0.012615643441677094,-0.30895254015922546,0.9508410096168518
1789550087016386475,1789550087022157606,0.023412400856614113,0.011706200428307056,-0.031925998628139496,1.0103530883789062,-0.21428105235099792,8.995614051818848,-0.016793642193078995,-0.012615643441677094,-0.30895254015922546,0.9508410096168518
1789550087021761448,1789550087025828746,0.023412400856614113,0.011706200428307056,-0.031925998628139496,1.0103530883789062,-0.21428105235099792,8.995614051818848,-0.016793642193078995,-0.012615643441677094,-0.30895254015922546,0.9508410096168518
1789550087025747322,1789550087036614025,-0.04788900166749954,0.03724699839949608,-0.01809139922261238,-1.0259153842926025,0.1538274586200714,12.980164527893066,-0.015463873744010925,-0.012375487945973873,-0.309217244386673,0.9507806301116943
1789550087037409099,1789550087041035074,-0.04788900166749954,0.03724699839949608,-0.01809139922261238,-1.0259153842926025,0.1538274586200714,12.980164527893066,-0.015463873744010925,-0.012375487945973873,-0.309217244386673,0.9507806301116943
1789550087042705463,1789550087046355974,-0.04788900166749954,0.03724699839949608,-0.01809139922261238,-1.0259153842926025,0.1538274586200714,12.980164527893066,-0.015463873744010925,-0.012375487945973873,-0.309217244386673,0.9507806301116943
1789550087047982531,1789550087056691485,0.0,-0.09364960342645645,-0.023412400856614113,0.028730420395731926,-0.5590460896492004,6.825869083404541,-0.01654169149696827,-0.011029787361621857,-0.3093630373477936,0.950731635093689
1789550087057579261,1789550087059729547,0.0,-0.09364960342645645,-0.023412400856614113,0.028730420395731926,-0.5590460896492004,6.825869083404541,-0.01654169149696827,-0.011029787361621857,-0.3093630373477936,0.950731635093689
1789550087062221121,1789550087063818123,0.0,-0.09364960342645645,-0.023412400856614113,0.028730420395731926,-0.5590460896492004,6.825869083404541,-0.01654169149696827,-0.011029787361621857,-0.3093630373477936,0.950731635093689
1789550087067269101,1789550087077556891,0.02766920067369938,0.050017401576042175,-0.04895320162177086,1.3317747116088867,-0.0694318488240242,10.85710620880127,-0.017491811886429787,-0.01264365017414093,-0.30976566672325134,0.9505634903907776
1789550087077682166,1789550087082606908,0.02766920067369938,0.050017401576042175,-0.04895320162177086,1.3317747116088867,-0.0694318488240242,10.85710620880127,-0.017491811886429787,-0.01264365017414093,-0.30976566672325134,0.9505634903907776
1789550087083366502,1789550087090032687,0.02766920067369938,0.050017401576042175,-0.04895320162177086,1.3317747116088867,-0.0694318488240242,10.85710620880127,-0.017491811886429787,-0.01264365017414093,-0.30976566672325134,0.9505634903907776
1789550087089051375,1789550087099848709,-0.03086180053651333,0.029797600582242012,-0.04043959826231003,-0.31842881441116333,-0.04967968538403511,13.506888389587402,-0.015655314549803734,-0.011459467001259327,-0.3102739155292511,0.9504446387290955
1789550087101938403,1789550087104384330,-0.03086180053651333,0.029797600582242012,-0.04043959826231003,-0.31842881441116333,-0.04967968538403511,13.506888389587402,-0.015655314549803734,-0.011459467001259327,-0.3102739155292511,0.9504446387290955
1789550087105291032,1789550087108411037,-0.03086180053651333,0.029797600582242012,-0.04043959826231003,-0.31842881441116333,-0.04967968538403511,13.506888389587402,-0.015655314549803734,-0.011459467001259327,-0.3102739155292511,0.9504446387290955
1789550087110551600,1789550087120409936,-0.009577799588441849,-0.09471379965543747,-0.031925998628139496,0.12868833541870117,-0.6446387767791748,7.017405033111572,-0.01777762360870838,-0.01075118687003851,-0.31052112579345703,0.950334906578064
1789550087122387707,1789550087125300883,-0.009577799588441849,-0.09471379965543747,-0.031925998628139496,0.12868833541870117,-0.6446387767791748,7.017405033111572,-0.01777762360870838,-0.01075118687003851,-0.31052112579345703,0.950334906578064
1789550087127416391,1789550087129339460,-0.009577799588441849,-0.09471379965543747,-0.031925998628139496,0.12868833541870117,-0.6446387767791748,7.017405033111572,-0.01777762360870838,-0.01075118687003851,-0.31052112579345703,0.950334906578064
1789550087132265672,1789550087140532303,0.0063852001912891865,0.04576060175895691,-0.038311198353767395,0.9917980432510376,0.04429272934794426,9.920374870300293,-0.017945965752005577,-0.012893563136458397,-0.31092527508735657,0.9501729607582092
1789550087140799445,1789550087143463016,0.0063852001912891865,0.04576060175895691,-0.038311198353767395,0.9917980432510376,0.04429272934794426,9.920374870300293,-0.017945965752005577,-0.012893563136458397,-0.31092527508735657,0.9501729607582092
1789550087145667411,1789550087148935764,0.0063852001912891865,0.04576060175895691,-0.038311198353767395,0.9917980432510376,0.04429272934794426,9.920374870300293,-0.017945965752005577,-0.012893563136458397,-0.31092527508735657,0.9501729607582092
1789550087148274668,1789550087150542414,0.0063852001912891865,0.04576060175895691,-0.038311198353767395,0.9917980432510376,0.04429272934794426,9.920374870300293,-0.017945965752005577,-0.012893563136458397,-0.31092527508735657,0.9501729607582092
1789550087153443367,1789550087162607867,-0.005320999771356583,0.0,-0.028733400627970695,-1.2635399103164673,-0.6739677786827087,12.085929870605469,-0.016907673329114914,-0.010590942576527596,-0.3112142086029053,0.9501258134841919
1789550087163729490,1789550087167262430,-0.005320999771356583,0.0,-0.028733400627970695,-1.2635399103164673,-0.6739677786827087,12.085929870605469,-0.016907673329114914,-0.010590942576527596,-0.3112142086029053,0.9501258134841919
1789550087167445926,1789550087169341032,-0.005320999771356583,0.0,-0.028733400627970695,-1.2635399103164673,-0.6739677786827087,12.085929870605469,-0.016907673329114914,-0.010590942576527596,-0.3112142086029053,0.9501258134841919
1789550087172262134,1789550087182664995,0.0063852001912891865,-0.056402601301670074,-0.03405439853668213,0.7966706156730652,-0.25498247146606445,7.344213485717773,-0.017712978646159172,-0.010522531345486641,-0.3115110397338867,0.9500146508216858
1789550087185481321,1789550087188713675,0.0063852001912891865,-0.056402601301670074,-0.03405439853668213,0.7966706156730652,-0.25498247146606445,7.344213485717773,-0.017712978646159172,-0.010522531345486641,-0.3115110397338867,0.9500146508216858
1789550087190286177,1789550087193551382,0.0063852001912891865,-0.056402601301670074,-0.03405439853668213,0.7966706156730652,-0.25498247146606445,7.344213485717773,-0.017712978646159172,-0.010522531345486641,-0.3115110397338867,0.9500146508216858
1789550087203680323,1789550087206502371,0.0,0.08300759643316269,-0.03299019858241081,0.7428010702133179,0.243011474609375,10.51054573059082,-0.017913920804858208,-0.011936752125620842,-0.31187230348587036,0.9498757123947144
1789550087207398259,1789550087210727647,0.0,0.08300759643316269,-0.03299019858241081,0.7428010702133179,0.243011474609375,10.51054573059082,-0.017913920804858208,-0.011936752125620842,-0.31187230348587036,0.9498757123947144
1789550087212336667,1789550087224434768,0.012770400382578373,-0.03724699839949608,-0.03299019858241081,-1.278503656387329,-0.45250412821769714,10.508151054382324,-0.016822757199406624,-0.009880413301289082,-0.31220534443855286,0.9498096704483032
1789550087224752224,1789550087230220602,0.012770400382578373,-0.03724699839949608,-0.03299019858241081,-1.278503656387329,-0.45250412821769714,10.508151054382324,-0.016822757199406624,-0.009880413301289082,-0.31220534443855286,0.9498096704483032
1789550087228568120,1789550087231845177,0.012770400382578373,-0.03724699839949608,-0.03299019858241081,-1.278503656387329,-0.45250412821769714,10.508151054382324,-0.016822757199406624,-0.009880413301289082,-0.31220534443855286,0.9498096704483032
1789550087233150685,1789550087247126763,0.01809139922261238,-0.035118598490953445,-0.02128399908542633,0.8649053573608398,-0.25917232036590576,8.893261909484863,-0.016709422692656517,-0.012566723860800266,-0.31247901916503906,0.9496899843215942
1789550087247237890,1789550087255732923,0.01809139922261238,-0.035118598490953445,-0.02128399908542633,0.8649053573608398,-0.25917232036590576,8.893261909484863,-0.016709422692656517,-0.012566723860800266,-0.31247901916503906,0.9496899843215942
1789550087254550783,1789550087266593977,-0.014898800291121006,0.08832859992980957,-0.010641999542713165,0.4519055485725403,0.3693056106567383,10.990582466125488,-0.016741182655096054,-0.013254365883767605,-0.3126428723335266,0.9496261477470398
1789550087267678324,1789550087271453517,-0.014898800291121006,0.08832859992980957,-0.010641999542713165,0.4519055485725403,0.3693056106567383,10.990582466125488,-0.016741182655096054,-0.013254365883767605,-0.3126428723335266,0.9496261477470398
1789550087272940003,1789550087276525719,-0.014898800291121006,0.08832859992980957,-0.010641999542713165,0.4519055485725403,0.3693056106567383,10.990582466125488,-0.016741182655096054,-0.013254365883767605,-0.3126428723335266,0.9496261477470398
1789550087287895077,1789550087291748195,-0.014898800291121006,-0.09577800333499908,-0.014898800291121006,-1.0438718795776367,-0.790086567401886,8.693944931030273,-0.016725147143006325,-0.011443506926298141,-0.31276097893714905,0.9496111273765564
1789550087294768424,1789550087297505808,-0.014898800291121006,-0.09577800333499908,-0.014898800291121006,-1.0438718795776367,-0.790086567401886,8.693944931030273,-0.016725147143006325,-0.011443506926298141,-0.31276097893714905,0.9496111273765564
1789550087298446416,1789550087309637889,0.007449400145560503,-0.020219799131155014,0.0,1.5855600833892822,-0.4836287498474121,10.003573417663574,-0.017469504848122597,-0.014231843873858452,-0.3128027319908142,0.949546217918396
1789550087309419098,1789550087311379239,0.007449400145560503,-0.020219799131155014,0.0,1.5855600833892822,-0.4836287498474121,10.003573417663574,-0.017469504848122597,-0.014231843873858452,-0.3128027319908142,0.949546217918396
1789550087312140408,1789550087315493814,0.007449400145560503,-0.020219799131155014,0.0,1.5855600833892822,-0.4836287498474121,10.003573417663574,-0.017469504848122597,-0.014231843873858452,-0.3128027319908142,0.949546217918396
1789550087319376635,1789550087329701146,-0.012770400382578373,0.09471379965543747,-0.007449400145560503,0.2172738015651703,-0.14724339544773102,12.431293487548828,-0.01680930331349373,-0.014264611527323723,-0.31286320090293884,0.9495376944541931
1789550087330799733,1789550087334759756,-0.012770400382578373,0.09471379965543747,-0.007449400145560503,0.2172738015651703,-0.14724339544773102,12.431293487548828,-0.01680930331349373,-0.014264611527323723,-0.31286320090293884,0.9495376944541931
1789550087337475325,1789550087350594829,-0.009577799588441849,-0.08087919652462006,-0.019155599176883698,-0.5680243372917175,-0.48602294921875,6.95695161819458,-0.016767172142863274,-0.012402184307575226,-0.31298860907554626,0.949523389339447
1789550087355050100,1789550087358515060,-0.009577799588441849,-0.08087919652462006,-0.019155599176883698,-0.5680243372917175,-0.48602294921875,6.95695161819458,-0.016767172142863274,-0.012402184307575226,-0.31298860907554626,0.949523389339447
1789550087358768443,1789550087371562899,0.008513599634170532,0.01383460033684969,0.0,1.5873557329177856,-0.3932476341724396,11.191695213317871,-0.017387554049491882,-0.014902696013450623,-0.31305548548698425,0.9494541883468628
1789550087372918776,1789550087375482145,0.008513599634170532,0.01383460033684969,0.0,1.5873557329177856,-0.3932476341724396,11.191695213317871,-0.017387554049491882,-0.014902696013450623,-0.31305548548698425,0.9494541883468628
1789550087377619987,1789550087382621468,0.008513599634170532,0.01383460033684969,0.0,1.5873557329177856,-0.3932476341724396,11.191695213317871,-0.017387554049491882,-0.014902696013450623,-0.31305548548698425,0.9494541883468628
1789550087384672829,1789550087392634634,-0.025540800765156746,0.0713014006614685,0.0063852001912891865,-0.5153518915176392,-0.040701426565647125,12.949638366699219,-0.015540054067969322,-0.013244534842669964,-0.31300875544548035,0.9495261907577515
1789550087393613760,1789550087396495825,-0.025540800765156746,0.0713014006614685,0.0063852001912891865,-0.5153518915176392,-0.040701426565647125,12.949638366699219,-0.015540054067969322,-0.013244534842669964,-0.31300875544548035,0.9495261907577515
1789550087398842532,1789550087401913612,-0.025540800765156746,0.0713014006614685,0.0063852001912891865,-0.5153518915176392,-0.040701426565647125,12.949638366699219,-0.015540054067969322,-0.013244534842669964,-0.31300875544548035,0.9495261907577515
1789550087402539913,1789550087413582963,0.0,-0.0776866003870964,-0.01383460033684969,0.013766659423708916,-0.11791443079710007,6.92343282699585,-0.015507588163018227,-0.011566437780857086,-0.31309056282043457,0.9495216608047485
1789550087416107852,1789550087418432152,0.0,-0.0776866003870964,-0.01383460033684969,0.013766659423708916,-0.11791443079710007,6.92343282699585,-0.015507588163018227,-0.011566437780857086,-0.31309056282043457,0.9495216608047485
1789550087419520331,1789550087423610574,0.0,-0.0776866003870964,-0.01383460033684969,0.013766659423708916,-0.11791443079710007,6.92343282699585,-0.015507588163018227,-0.011566437780857086,-0.31309056282043457,0.9495216608047485
1789550087424828195,1789550087434948914,0.0,0.028733400627970695,0.008513599634170532,1.455674648284912,-0.590170681476593,10.187328338623047,-0.016658486798405647,-0.013529358431696892,-0.3131037652492523,0.9494718909263611
1789550087434663198,1789550087438079251,0.0,0.028733400627970695,0.008513599634170532,1.455674648284912,-0.590170681476593,10.187328338623047,-0.016658486798405647,-0.013529358431696892,-0.3131037652492523,0.9494718909263611
1789550087437465858,1789550087442266158,0.0,0.028733400627970695,0.008513599634170532,1.455674648284912,-0.590170681476593,10.187328338623047,-0.016658486798405647,-0.013529358431696892,-0.3131037652492523,0.9494718909263611
1789550087444060544,1789550087455660712,-0.022348200902342796,0.01383460033684969,0.010641999542713165,-0.7775169610977173,0.15442600846290588,13.50389575958252,-0.015085200779139996,-0.01164259947836399,-0.3129733204841614,0.9495661854743958
1789550087455638416,1789550087459572458,-0.022348200902342796,0.01383460033684969,0.010641999542713165,-0.7775169610977173,0.15442600846290588,13.50389575958252,-0.015085200779139996,-0.01164259947836399,-0.3129733204841614,0.9495661854743958
1789550087460695044,1789550087464800341,-0.022348200902342796,0.01383460033684969,0.010641999542713165,-0.7775169610977173,0.15442600846290588,13.50389575958252,-0.015085200779139996,-0.01164259947836399,-0.3129733204841614,0.9495661854743958
1789550087467261731,1789550087475552972,0.0,-0.07342980057001114,-0.011706200428307056,-0.3016694188117981,-0.0347159244120121,6.651092052459717,-0.015536917373538017,-0.010273205116391182,-0.3130166232585907,0.9495604634284973
1789550087476546413,1789550087478863565,0.0,-0.07342980057001114,-0.011706200428307056,-0.3016694188117981,-0.0347159244120121,6.651092052459717,-0.015536917373538017,-0.010273205116391182,-0.3130166232585907,0.9495604634284973
1789550087480640544,1789550087485671321,0.0,-0.07342980057001114,-0.011706200428307056,-0.3016694188117981,-0.0347159244120121,6.651092052459717,-0.015536917373538017,-0.010273205116391182,-0.3130166232585907,0.9495604634284973
1789550087486253808,1789550087497047383,0.015962999314069748,0.06172360107302666,0.01809139922261238,0.6596025824546814,-0.09277531504631042,10.289081573486328,-0.016098318621516228,-0.012143194675445557,-0.312966525554657,0.9495455622673035
1789550087497775533,1789550087499922041,0.015962999314069748,0.06172360107302666,0.01809139922261238,0.6596025824546814,-0.09277531504631042,10.289081573486328,-0.016098318621516228,-0.012143194675445557,-0.312966525554657,0.9495455622673035
1789550087502475706,1789550087504537216,0.015962999314069748,0.06172360107302666,0.01809139922261238,0.6596025824546814,-0.09277531504631042,10.289081573486328,-0.016098318621516228,-0.012143194675445557,-0.312966525554657,0.9495455622673035
1789550087507227545,1789550087519401163,-0.0063852001912891865,0.0,0.01383460033684969,-0.8894459009170532,-0.1646013706922531,12.240954399108887,-0.014607243239879608,-0.010211979039013386,-0.31274858117103577,0.9496641755104065
1789550087520781336,1789550087522916473,-0.0063852001912891865,0.0,0.01383460033684969,-0.8894459009170532,-0.1646013706922531,12.240954399108887,-0.014607243239879608,-0.010211979039013386,-0.31274858117103577,0.9496641755104065
1789550087524401811,1789550087528180708,-0.0063852001912891865,0.0,0.01383460033684969,-0.8894459009170532,-0.1646013706922531,12.240954399108887,-0.014607243239879608,-0.010211979039013386,-0.31274858117103577,0.9496641755104065
1789550087528714974,1789550087539519381,0.014898800291121006,-0.04043959826231003,0.007449400145560503,0.47225627303123474,-0.2579752206802368,8.455721855163574,-0.015759490430355072,-0.010078278370201588,-0.3126593232154846,0.949676513671875
1789550087540152312,1789550087543470941,0.014898800291121006,-0.04043959826231003,0.007449400145560503,0.47225627303123474,-0.2579752206802368,8.455721855163574,-0.015759490430355072,-0.010078278370201588,-0.3126593232154846,0.949676513671875
1789550087545635653,1789550087548752787,0.014898800291121006,-0.04043959826231003,0.007449400145560503,0.47225627303123474,-0.2579752206802368,8.455721855163574,-0.015759490430355072,-0.010078278370201588,-0.3126593232154846,0.949676513671875
1789550087549509418,1789550087560865073,-0.0063852001912891865,0.05853100121021271,0.014898800291121006,0.5279214382171631,0.2472013235092163,9.997587203979492,-0.015708500519394875,-0.011465662159025669,-0.31256943941116333,0.9496912360191345
1789550087560496285,1789550087562494296,-0.0063852001912891865,0.05853100121021271,0.014898800291121006,0.5279214382171631,0.2472013235092163,9.997587203979492,-0.015708500519394875,-0.011465662159025669,-0.31256943941116333,0.9496912360191345
1789550087563544920,1789550087566501132,-0.0063852001912891865,0.05853100121021271,0.014898800291121006,0.5279214382171631,0.2472013235092163,9.997587203979492,-0.015708500519394875,-0.011465662159025669,-0.31256943941116333,0.9496912360191345
1789550087567773289,1789550087569533806,-0.0063852001912891865,0.05853100121021271,0.014898800291121006,0.5279214382171631,0.2472013235092163,9.997587203979492,-0.015708500519394875,-0.011465662159025669,-0.31256943941116333,0.9496912360191345
1789550087572262726,1789550087582634606,-0.010641999542713165,-0.053210001438856125,0.009577799588441849,-0.943913996219635,-0.6440402269363403,9.682151794433594,-0.01513229962438345,-0.009500865824520588,-0.3124435842037201,0.9497637748718262
1789550087583781859,1789550087591812846,-0.010641999542713165,-0.053210001438856125,0.009577799588441849,-0.943913996219635,-0.6440402269363403,9.682151794433594,-0.01513229962438345,-0.009500865824520588,-0.3124435842037201,0.9497637748718262
1789550087589497028,1789550087601854752,0.023412400856614113,-0.041503798216581345,0.012770400382578373,1.0636241436004639,-0.43035775423049927,9.358335494995117,-0.01682349480688572,-0.011336981318891048,-0.31232985854148865,0.9497525691986084
1789550087605051607,1789550087609079110,0.023412400856614113,-0.041503798216581345,0.012770400382578373,1.0636241436004639,-0.43035775423049927,9.358335494995117,-0.01682349480688572,-0.011336981318891048,-0.31232985854148865,0.9497525691986084
1789550087612658827,1789550087627123653,-0.03086180053651333,0.05214580148458481,0.019155599176883698,0.07362169772386551,0.535702645778656,10.886434555053711,-0.01566869392991066,-0.012216940522193909,-0.31220993399620056,0.9498007893562317
1789550087625614057,1789550087628186777,-0.03086180053651333,0.05214580148458481,0.019155599176883698,0.07362169772386551,0.535702645778656,10.886434555053711,-0.01566869392991066,-0.012216940522193909,-0.31220993399620056,0.9498007893562317
1789550087628620379,1789550087632465386,-0.03086180053651333,0.05214580148458481,0.019155599176883698,0.07362169772386551,0.535702645778656,10.886434555053711,-0.01566869392991066,-0.012216940522193909,-0.31220993399620056,0.9498007893562317
1789550087632592827,1789550087644528876,-0.01383460033684969,-0.09471379965543747,0.009577799588441849,-0.7386112213134766,-0.6404489278793335,8.553285598754883,-0.015866156667470932,-0.010460596531629562,-0.3120768070220947,0.9498623013496399
1789550087645191713,1789550087649511265,-0.01383460033684969,-0.09471379965543747,0.009577799588441849,-0.7386112213134766,-0.6404489278793335,8.553285598754883,-0.015866156667470932,-0.010460596531629562,-0.3120768070220947,0.9498623013496399
1789550087655151621,1789550087666166468,0.031925998628139496,-0.010641999542713165,-0.005320999771356583,1.304839849472046,-0.2472013235092163,9.19552993774414,-0.017344515770673752,-0.012263367883861065,-0.3120701014995575,0.9498170614242554
