t_ns,t_bag_ns,wx,wy,wz,ax,ay,az,qx,qy,qz,qw
1784885672291882008,1784885672296145987,0.0,0.0,0.0,0.016759412363171577,-0.2064998894929886,9.756970405578613,0.010564595460891724,-0.003060747403651476,0.3940739631652832,-0.9190082550048828
1784885672341931243,1784885672349806162,0.0,0.0,0.0,0.028730420395731926,-0.24001871049404144,9.880271911621094,0.010153803043067455,-0.0034089137334376574,0.3940696716308594,-0.9190135598182678
1784885672391838924,1784885672396385123,0.0,0.0,0.0,0.0071826050989329815,-0.20290859043598175,9.896432876586914,0.009370428510010242,-0.0038380008190870285,0.39406463503837585,-0.919022262096405
1784885672441943799,1784885672452544893,0.0,0.0,0.0,-0.004788403399288654,-0.2322375625371933,9.821613311767578,0.010758965276181698,-0.0049208542332053185,0.3940522074699402,-0.9190072417259216
1784885672491884198,1784885672494416326,0.0,0.0,0.0,-0.02274491637945175,-0.2059013396501541,9.9586820602417,0.009067636914551258,-0.00511499959975481,0.3940484821796417,-0.9190260171890259
1784885672541817875,1784885672544597061,0.0,0.0,0.0,-0.021547814831137657,-0.17477671802043915,9.866504669189453,0.009124020114541054,-0.004857816733419895,0.394049733877182,-0.9190263152122498
1784885672591931138,1784885672597918561,0.0,0.0,0.0,-0.0071826050989329815,-0.2064998894929886,9.857526779174805,0.010213758796453476,-0.004430134780704975,0.3940575420856476,-0.9190136790275574
1784885672641806027,1784885672643452500,0.0,0.0,0.0,-0.0071826050989329815,-0.2322375625371933,9.88625717163086,0.010683844797313213,-0.003901495598256588,0.3940623998641968,-0.9190086126327515
1784885672691792215,1784885672701427814,0.0,0.0,0.0,-0.01975216343998909,-0.19153612852096558,9.879075050354004,0.008682627230882645,-0.004837209824472666,0.3940466344356537,-0.9190319776535034
1784885672741848634,1784885672746242891,0.0,0.0,0.0,0.010175356641411781,-0.2238578498363495,9.87967300415039,0.010118796490132809,-0.004713850095868111,0.39404913783073425,-0.9190168976783752
1784885672791806789,1784885672793476611,0.0,0.0,0.0,0.03531447425484657,-0.22026655077934265,9.90361499786377,0.00936153344810009,-0.004456580616533756,0.3940516412258148,-0.9190251231193542
1784885672841778553,1784885672847770717,0.0,0.0,0.0,0.0,-0.1951274424791336,9.86231517791748,0.00908655859529972,-0.003877911251038313,0.39405712485313416,-0.919028103351593
1784885672891811217,1784885672894496712,0.0,0.0,0.0,-0.02992752008140087,-0.20769698917865753,9.910798072814941,0.010627876967191696,-0.005228493828326464,0.3940410912036896,-0.9190117716789246
1784885672941770705,1784885672949611369,0.0,0.0,0.0,-0.0347159244120121,-0.19692309200763702,9.860519409179688,0.010025043971836567,-0.003704117378219962,0.3940574824810028,-0.9190189242362976
1784885672992135470,1784885672995447563,0.0,0.0,0.0,0.025737667456269264,-0.2346317619085312,9.817423820495605,0.011323085054755211,-0.002413941780105233,0.39406833052635193,-0.9190035462379456
1784885673041783566,1784885673053653337,0.0,0.0,0.0,-0.02454056777060032,-0.20769698917865753,9.828197479248047,0.009602349251508713,-0.004709447268396616,0.39404478669166565,-0.9190244078636169
1784885673091731604,1784885673094586169,0.0,0.0,0.0,-0.010773907415568829,-0.22086510062217712,9.834183692932129,0.010283289477229118,-0.004877887666225433,0.3940422236919403,-0.9190171957015991
1784885673141732801,1784885673145770146,0.0,0.0,0.0,0.032920271158218384,-0.2298433631658554,9.892242431640625,0.010326757095754147,-0.004236544948071241,0.3940502405166626,-0.919016420841217
1784885673191704151,1784885673198565528,0.0,0.0,0.0,0.028131868690252304,-0.21667525172233582,9.77372932434082,0.009839828126132488,-0.0031219867523759604,0.3940638303756714,-0.9190203547477722
1784885673241779820,1784885673245062584,0.0,0.0,0.0,-0.016160860657691956,-0.23702596127986908,9.944914817810059,0.010651140473783016,-0.005694275721907616,0.3940344452857971,-0.919011652469635
1784885673291748096,1784885673301388993,0.0,0.0,0.0,-0.009576806798577309,-0.23044191300868988,9.90361499786377,0.010498697869479656,-0.00510713504627347,0.39404141902923584,-0.9190137386322021
1784885673341702078,1784885673343583704,0.0,0.0,0.0,0.04010287672281265,-0.2519897222518921,9.862914085388184,0.010918525978922844,-0.0030694613233208656,0.39406314492225647,-0.919008731842041
1784885673391722606,1784885673394535288,0.0,0.0,0.0,0.0005985504249110818,-0.19033902883529663,9.901819229125977,0.010104713961482048,-0.004344919230788946,0.3940512239933014,-0.919018030166626
1784885673441711657,1784885673447348278,0.0,0.0,0.0,0.0011971008498221636,-0.21009118854999542,9.786299705505371,0.009292270988225937,-0.003241247031837702,0.394063800573349,-0.9190256595611572
1784885673491675119,1784885673496908778,0.0,0.0,0.0,0.0065840547904372215,-0.2106897532939911,9.922768592834473,0.009704993106424809,-0.004159113857895136,0.39405232667922974,-0.9190226793289185
1784885673541760656,1784885673550577742,0.0,0.0,0.0,0.005985504016280174,-0.22685061395168304,9.78869342803955,0.010324549861252308,-0.0036930404603481293,0.39405614137649536,-0.9190163016319275
1784885673591710027,1784885673594549465,0.0,0.0,0.0,-0.013766659423708916,-0.2059013396501541,9.860519409179688,0.009600845165550709,-0.003717500250786543,0.3940578103065491,-0.9190232157707214
1784885673641649289,1784885673653502804,0.0,0.0,0.0,-0.02992752008140087,-0.25079262256622314,9.914388656616211,0.010740584693849087,-0.004257052205502987,0.3940516710281372,-0.9190110564231873
1784885673691633341,1784885673695679980,0.0,0.0,0.0,0.008379706181585789,-0.2579752206802368,9.907206535339355,0.011922433972358704,-0.004699588753283024,0.39404553174972534,-0.9189969301223755
1784885673741621003,1784885673743596913,0.0,0.0,0.0,0.01975216343998909,-0.24480712413787842,9.908403396606445,0.011058405973017216,-0.004091944079846144,0.3940521776676178,-0.9190077185630798
1784885673791646790,1784885673798412402,0.0,0.0,0.0,-0.0011971008498221636,-0.2322375625371933,9.806051254272461,0.010936499573290348,-0.0047045061364769936,0.3940444588661194,-0.9190095663070679
1784885673841697906,1784885673844589818,0.0,0.0,0.0,-0.016759412363171577,-0.1975216418504715,9.97484302520752,0.009811392053961754,-0.004717795178294182,0.3940448462963104,-0.9190220832824707
1784885673891757836,1784885673902474990,0.0,0.0,0.0,0.013766659423708916,-0.19033902883529663,9.847949981689453,0.010018528439104557,-0.0021812142804265022,0.39407309889793396,-0.9190172553062439
1784885673941664028,1784885673944719195,0.0,0.0,0.0,-0.0035913025494664907,-0.23283611238002777,9.889249801635742,0.010734207928180695,-0.004838480614125729,0.3940420150756836,-0.9190122485160828
1784885673991752491,1784885673994792734,0.0,0.0,0.0,-0.02693476900458336,-0.20470423996448517,9.7976713180542,0.009442153386771679,-0.005335674621164799,0.3940359652042389,-0.919026255607605
1784885674041629325,1784885674047601735,0.0,0.0,0.0,0.03711012750864029,-0.24660277366638184,9.892841339111328,0.01014372892677784,-0.003321391995996237,0.3940608501434326,-0.9190176725387573
1784885674091601908,1784885674093628589,0.0,0.0,0.0,0.03232172131538391,-0.22625206410884857,9.919177055358887,0.010734685696661472,-0.0031296240631490946,0.3940630257129669,-0.9190106391906738
1784885674141754707,1784885674151255996,0.0,0.0,0.0,-0.018555063754320145,-0.193331778049469,9.800065994262695,0.009038019925355911,-0.005243747029453516,0.39403900504112244,-0.9190296530723572
1784885674191628618,1784885674195377152,0.0,0.0,0.0,0.018555063754320145,-0.24899697303771973,9.877877235412598,0.009958385489881039,-0.004441611003130674,0.39404839277267456,-0.9190203547477722
1784885674241563058,1784885674254450376,0.0,0.0,0.0,0.0,-0.2148796021938324,9.821015357971191,0.010068382136523724,-0.004220610950142145,0.39405179023742676,-0.9190186858177185
1784885674291554582,1784885674295730483,0.0,0.0,0.0,0.028131868690252304,-0.2214636504650116,9.941324234008789,0.010084661655128002,-0.0035317742731422186,0.39405927062034607,-0.9190182089805603
1784885674341616171,1784885674344757586,0.0,0.0,0.0,-0.014365210197865963,-0.243011474609375,9.825204849243164,0.010838155634701252,-0.003970542456954718,0.39405524730682373,-0.9190095067024231
1784885674392402011,1784885674399933389,0.0,0.0,0.0,0.04010287672281265,-0.25977087020874023,9.929352760314941,0.012044782750308514,-0.0037121204659342766,0.39405557513237,-0.9189954400062561
1784885674441534526,1784885674443408191,0.0,0.0,0.0,0.03770867735147476,-0.18974047899246216,9.897629737854004,0.01007592212408781,-0.004197954665869474,0.3940507769584656,-0.9190191030502319
1784885674491576358,1784885674503466037,0.0,0.0,0.0,-0.06883329898118973,-0.19632454216480255,9.944914817810059,0.010450181551277637,-0.004603305831551552,0.39404529333114624,-0.9190154075622559
1784885674541536239,1784885674544881273,0.0,0.0,0.0,-0.028131868690252304,-0.2364274114370346,9.891644477844238,0.011298063211143017,-0.005897366441786289,0.3940277397632599,-0.9190055727958679
1784885674591564925,1784885674594521291,0.0,0.0,0.0,0.0017956512747332454,-0.25438392162323,9.84376049041748,0.010425475426018238,-0.0039120945148169994,0.3940499424934387,-0.91901695728302
1784885674641608998,1784885674647778343,0.0,0.0,0.0,-0.002992752008140087,-0.2256534993648529,9.892841339111328,0.010429599322378635,-0.004555943422019482,0.3940439522266388,-0.919016420841217
1784885674691576415,1784885674693420714,0.0,0.0,0.0,-0.019153613597154617,-0.25079262256622314,9.907206535339355,0.011064382269978523,-0.0042636813595891,0.39404815435409546,-0.9190086126327515
1784885674741549516,1784885674751627039,0.0,0.0,0.0,0.03531447425484657,-0.2017114907503128,9.996390342712402,0.009544429369270802,-0.00344958552159369,0.39405855536460876,-0.9190245866775513
1784885674791491547,1784885674795820926,0.0,0.0,0.0,0.03770867735147476,-0.2256534993648529,9.886856079101562,0.010265128687024117,-0.0035069838631898165,0.3940584659576416,-0.9190165996551514
1784885674841509161,1784885674843765476,0.0,0.0,0.0,0.015562310814857483,-0.26575639843940735,9.860519409179688,0.012225166894495487,-0.004300191532820463,0.3940478265285492,-0.9189940094947815
1784885674891551345,1784885674896655005,0.0,0.0,0.0,-0.0694318488240242,-0.21128830313682556,9.783905029296875,0.011022494174540043,-0.004471837542951107,0.39404740929603577,-0.9190084338188171
1784885674941492228,1784885674944760014,0.0,0.0,0.0,0.01735796220600605,-0.21966800093650818,9.836577415466309,0.010439996607601643,-0.004566808696836233,0.3940467834472656,-0.9190151691436768
1784885674991474143,1784885675000463596,0.0,0.0,0.0,0.020350713282823563,-0.20231004059314728,9.865307807922363,0.011376777663826942,-0.00388960144482553,0.3940548300743103,-0.9190035462379456
1784885675041442013,1784885675043610600,0.0,0.0,0.0,-0.025737667456269264,-0.19871874153614044,9.894637107849121,0.009391211904585361,-0.0053709703497588634,0.39403679966926575,-0.9190261960029602
1784885675091518684,1784885675103374055,0.0,0.0,0.0,0.0077811554074287415,-0.1951274424791336,9.818022727966309,0.009287389926612377,-0.0035672890953719616,0.3940574824810028,-0.9190272092819214
1784885675141478983,1784885675144640062,0.0,0.0,0.0,0.02454056777060032,-0.20709843933582306,9.849146842956543,0.010211127810180187,-0.0041580358520150185,0.39405006170272827,-0.9190182089805603
1784885675191507013,1784885675193440929,0.0,0.0,0.0,-0.0035913025494664907,-0.1867477297782898,9.883264541625977,0.010526448488235474,-0.00404279213398695,0.39405176043510437,-0.9190143942832947
1784885675241483106,1784885675248673959,0.0,0.0,0.0,-0.005985504016280174,-0.1999158412218094,9.906009674072266,0.009811668656766415,-0.004709238186478615,0.39404410123825073,-0.9190224409103394
1784885675292187875,1784885675294366536,0.0,0.0,0.0,-0.02992752008140087,-0.24001871049404144,10.02452278137207,0.010057516396045685,-0.005664381664246321,0.39403414726257324,-0.9190186262130737
1784885675341399760,1784885675351798259,0.0,0.0,0.0,0.005985504016280174,-0.21547815203666687,9.86231517791748,0.010080399923026562,-0.004922284744679928,0.39404356479644775,-0.9190186262130737
1784885675391583231,1784885675393456971,0.0,0.0,0.0,0.02693476900458336,-0.1951274424791336,9.900023460388184,0.009793308563530445,-0.0034487759694457054,0.3940592408180237,-0.9190216660499573
1784885675441450395,1784885675444047589,0.0,0.0,0.0,0.02753331884741783,-0.2388216108083725,9.905410766601562,0.010701484978199005,-0.003182085230946541,0.3940623104572296,-0.9190112352371216
1784885675491582151,1784885675496412239,0.0,0.0,0.0,-0.0071826050989329815,-0.2059013396501541,9.892242431640625,0.009580165147781372,-0.003362143412232399,0.3940589129924774,-0.9190244674682617
1784885675541452370,1784885675546565178,0.0,0.0,0.0,0.0,-0.24839842319488525,9.907206535339355,0.010416023433208466,-0.0036720819771289825,0.3940544128417969,-0.9190160036087036
1784885675591400170,1784885675600475150,0.0,0.0,0.0,-0.002394201699644327,-0.1843535304069519,9.970054626464844,0.00875810906291008,-0.003974484745413065,0.3940517008304596,-0.9190332293510437
1784885675641453234,1784885675644792548,0.0,0.0,0.0,0.04429272934794426,-0.21966800093650818,9.978433609008789,0.01086904015392065,-0.0038262270390987396,0.3940543830394745,-0.9190102219581604
1784885675691508853,1784885675703463210,0.0,0.0,0.0,-0.005386953707784414,-0.21368250250816345,9.870695114135742,0.009945863857865334,-0.003906948026269674,0.39405158162117004,-0.9190215468406677
1784885675741414344,1784885675745759537,0.0,0.0,0.0,0.010773907415568829,-0.23163901269435883,9.849146842956543,0.011187740601599216,-0.004076952580362558,0.3940505385398865,-0.9190069437026978
1784885675791397233,1784885675793560358,0.0,0.0,0.0,0.03890577703714371,-0.2256534993648529,9.830592155456543,0.010151362977921963,-0.004330149386078119,0.3940485417842865,-0.9190187454223633
1784885675841342663,1784885675848737358,0.0,0.0,0.0,0.017956512048840523,-0.2364274114370346,9.986215591430664,0.009979027323424816,-0.005549360997974873,0.39403408765792847,-0.9190202355384827
1784885675891365509,1784885675895242396,0.0,0.0,0.0,-0.01735796220600605,-0.24420857429504395,9.841964721679688,0.01043312344700098,-0.005016356240957975,0.39403825998306274,-0.9190164804458618
1784885675941381041,1784885675952535361,0.0,0.0,0.0,0.0017956512747332454,-0.19871874153614044,9.936535835266113,0.009485810063779354,-0.0035915388725697994,0.39405450224876404,-0.9190264940261841
1784885675991432179,1784885675993952866,0.0,0.0,0.0,0.04249707981944084,-0.2017114907503128,9.914987564086914,0.010071368888020515,-0.00232916628010571,0.3940683901309967,-0.9190183281898499
1784885676041310478,1784885676045071456,0.0,0.0,0.0,-0.0347159244120121,-0.22924481332302094,9.794678688049316,0.010174151510000229,-0.003330207196995616,0.39405810832977295,-0.9190184473991394
1784885676091353035,1784885676099086758,0.0,0.0,0.0,0.01975216343998909,-0.2346317619085312,9.877877235412598,0.011385878548026085,-0.0037806539330631495,0.3940512537956238,-0.9190055131912231
1784885676141365281,1784885676143787816,0.0,0.0,0.0,0.04489128291606903,-0.21847090125083923,9.735422134399414,0.011086491867899895,-0.004852571524679661,0.39403897523880005,-0.9190093278884888
1784885676191369288,1784885676200397165,0.0,0.0,0.0,0.0652419924736023,-0.20889408886432648,9.914388656616211,0.010091869160532951,-0.004261000547558069,0.39404505491256714,-0.9190211296081543
1784885676241341744,1784885676244637305,0.0,0.0,0.0,-0.020949264988303185,-0.2495955228805542,9.834781646728516,0.010144539177417755,-0.00457853265106678,0.39404043555259705,-0.91902095079422
1784885676291343603,1784885676292465428,0.0,0.0,-0.035118598490953445,2.2212204933166504,-0.4339490532875061,10.026317596435547,0.011706788092851639,-0.0004895211895927787,0.3940236270427704,-0.9190208911895752
1784885676341273286,1784885676345774421,0.0,-0.05746680125594139,-0.009577799588441849,1.2186486721038818,-0.3429693877696991,7.465120792388916,0.013930348679423332,0.004876516293734312,0.39511045813560486,-0.9185104966163635
1784885676391612247,1784885676394461647,-0.008513599634170532,0.053210001438856125,0.022348200902342796,0.43933600187301636,0.02274491637945175,11.19468879699707,0.013802651315927505,0.00687172869220376,0.3949408531188965,-0.9185724258422852
1784885676441325608,1784885676449642491,0.0,0.0776866003870964,0.023412400856614113,0.1280897855758667,0.1951274424791336,9.79647445678711,0.013196789659559727,0.006262834649533033,0.39430704712867737,-0.918857991695404
1784885676491553547,1784885676495820548,0.010641999542713165,-0.03724699839949608,0.019155599176883698,1.0642226934432983,-0.1999158412218094,9.241020202636719,0.012739979662001133,0.00434854393824935,0.3939155638217926,-0.9190434217453003
1784885676541268075,1784885676552621111,0.011706200428307056,-0.06598039716482162,0.014898800291121006,1.0073603391647339,-0.2651578485965729,8.237251281738281,0.011445659212768078,0.0033684438094496727,0.39348769187927246,-0.9192478060722351
1784885676591254325,1784885676594936740,-0.004256799817085266,0.011706200428307056,0.010641999542713165,-1.0127472877502441,-0.5135562419891357,13.572729110717773,0.01027834415435791,0.0023700224701315165,0.3932247757911682,-0.9193771481513977
1784885676641242112,1784885676645771521,0.011706200428307056,0.03405439853668213,0.008513599634170532,0.5614402890205383,-0.32501286268234253,8.945934295654297,0.011415149085223675,0.004192097578197718,0.39311009645462036,-0.9194063544273376
1784885676691249044,1784885676697432057,0.014898800291121006,0.019155599176883698,0.008513599634170532,1.1408370733261108,-0.03770867735147476,9.093177795410156,0.011062472127377987,0.002833401318639517,0.3928520381450653,-0.9195261597633362
1784885676741297841,1784885676743830601,0.0,-0.09152120351791382,0.0,-0.447715699672699,-0.35015198588371277,6.746860504150391,0.009639785625040531,0.000515644031111151,0.3926687240600586,-0.9196246862411499
1784885676791258058,1784885676801439089,-0.014898800291121006,-0.08726440370082855,-0.005320999771356583,-0.48901569843292236,-0.8487445116043091,7.347805023193359,0.010071788914501667,0.0010399121092632413,0.39262017607688904,-0.919640302658081
1784885676841225069,1784885676844571809,-0.020219799131155014,0.07875079661607742,0.0,-0.14185644686222076,0.4985924959182739,11.906963348388672,0.010550920851528645,0.0039652562700212,0.39263448119163513,-0.9196208715438843
1784885676891248851,1784885676892432909,0.01383460033684969,-0.04256799817085266,0.0,1.0522515773773193,-0.25438392162323,9.469067573547363,0.011577730067074299,0.004846089519560337,0.39274951815605164,-0.9195550680160522
1784885676941291464,1784885676945825557,0.015962999314069748,-0.035118598490953445,-0.008513599634170532,0.6404489278793335,-0.0071826050989329815,9.385270118713379,0.011374175548553467,0.0035632301587611437,0.39281603693962097,-0.9195351600646973
1784885676991226073,1784885676994672576,-0.005320999771356583,-0.020219799131155014,0.0,-0.9780313968658447,-0.7685387134552002,12.093710899353027,0.010375450365245342,0.0032215313985943794,0.3928864002227783,-0.919518232345581
1784885677041222255,1784885677049681768,-0.014898800291121006,0.017027199268341064,-0.008513599634170532,-1.072602391242981,-0.1107318252325058,13.315951347351074,0.010412894189357758,0.002324948087334633,0.3931317925453186,-0.9194155931472778
1784885677091185592,1784885677093383361,0.0,0.04576060175895691,-0.02128399908542633,0.6889315247535706,-0.181959331035614,9.40023422241211,0.012123570777475834,0.0033279929775744677,0.3934401869773865,-0.9192595481872559
1784885677141173055,1784885677152687497,0.0,0.03937539830803871,-0.015962999314069748,0.8858546018600464,0.05686229094862938,10.125079154968262,0.011321252211928368,0.0030099775176495314,0.3938876986503601,-0.9190793037414551
1784885677191162092,1784885677196439880,-0.008513599634170532,-0.08832859992980957,-0.01383460033684969,-0.5656301379203796,-0.3447650372982025,6.0639142990112305,0.009430484846234322,-0.000506483658682555,0.3941367268562317,-0.918998658657074
1784885677241164535,1784885677244564361,-0.011706200428307056,0.07981500029563904,-0.009577799588441849,-0.1975216418504715,-0.10773907601833344,12.744335174560547,0.009465694427490234,-0.0008071106276474893,0.3943701386451721,-0.9188979268074036
1784885677291173422,1784885677297383395,0.0,0.07342980057001114,0.0,0.04189852997660637,-0.07122749835252762,11.075576782226562,0.009194697253406048,0.0005908284801989794,0.3944234848022461,-0.9188778400421143
1784885677341228339,1784885677343637523,0.005320999771356583,-0.02447660081088543,0.01383460033684969,1.2802993059158325,-0.2472013235092163,10.147225379943848,0.01000903733074665,0.0011926648439839482,0.39430755376815796,-0.9189184904098511
1784885677391125389,1784885677401478028,0.007449400145560503,-0.02766920067369938,0.020219799131155014,0.9385270476341248,0.053270988166332245,9.687538146972656,0.009481841698288918,7.097258639987558e-05,0.3939414918422699,-0.91908198595047
1784885677441135553,1784885677442688356,0.0,-0.026605000719428062,0.010641999542713165,-1.3766659498214722,-0.2555810213088989,10.812214851379395,0.00848368089646101,-0.0015706121921539307,0.3936311900615692,-0.9192231893539429
1784885677491139088,1784885677493825549,0.0063852001912891865,0.056402601301670074,0.02766920067369938,0.14844051003456116,-0.12449848651885986,8.71070384979248,0.010667197406291962,0.0019079132471233606,0.39322054386138916,-0.9193756580352783
1784885677541185784,1784885677546815541,0.010641999542713165,0.038311198353767395,0.035118598490953445,0.7032967209815979,-0.2561795711517334,8.898050308227539,0.010699180886149406,0.0014790196437388659,0.3925166726112366,-0.9196767210960388
1784885677591136678,1784885677594487492,0.0,-0.0840718001127243,0.010641999542713165,-0.1149216815829277,-0.5207388401031494,6.208763599395752,0.009850000962615013,-0.00135957938618958,0.39213433861732483,-0.9198494553565979
1784885677641090239,1784885677649673254,0.004256799817085266,-0.08513599634170532,0.010641999542713165,-0.7092822194099426,-0.5536591410636902,6.0010666847229,0.009146097116172314,-0.0014338020700961351,0.39174699783325195,-0.9200217127799988
1784885677691793048,1784885677695974580,-0.02766920067369938,0.06065940111875534,0.007449400145560503,0.020350713282823563,0.009576806798577309,12.32834243774414,0.008525636978447437,0.0015765931457281113,0.39155057072639465,-0.9201110601425171
1784885677741128342,1784885677753697175,-0.011706200428307056,0.07236559689044952,0.007449400145560503,-0.10594342648983002,0.21188685297966003,11.309011459350586,0.009320303797721863,0.003044513752683997,0.3915172517299652,-0.9201138615608215
1784885677791108177,1784885677795240475,0.02128399908542633,-0.03724699839949608,0.0,1.07379949092865,0.017956512048840523,10.004171371459961,0.0106334388256073,0.0036250657867640257,0.3914206326007843,-0.9201385378837585
1784885677841060053,1784885677844719268,0.005320999771356583,-0.053210001438856125,0.0,-1.4263455867767334,-0.3884592056274414,9.898826599121094,0.009481813758611679,0.002063303254544735,0.3912893831729889,-0.9202118515968323
1784885677891067976,1784885677897421096,0.0,-0.03086180053651333,0.0,-1.0911574363708496,-0.4626794755458832,11.592724800109863,0.010210839100182056,0.0019799047149717808,0.3912169635295868,-0.9202350378036499
1784885677941099193,1784885677943743753,0.022348200902342796,0.06172360107302666,0.0,0.7936778664588928,-0.1149216815829277,9.115324020385742,0.011501548811793327,0.0038346375804394484,0.3913280665874481,-0.9201667308807373
1784885677991097229,1784885678001361048,0.009577799588441849,0.04043959826231003,0.0,0.9038110971450806,0.08499415963888168,9.853337287902832,0.011499040760099888,0.0028794524259865284,0.3912988603115082,-0.9201825857162476
1784885678041050853,1784885678042461102,0.0,-0.06278780102729797,-0.011706200428307056,-0.41359832882881165,-0.5225344896316528,6.783371925354004,0.010552814230322838,-0.0010088059352710843,0.39124128222465515,-0.9202224016189575
1784885678091050157,1784885678093539813,-0.02766920067369938,0.059595201164484024,-0.004256799817085266,-0.6542155742645264,0.013168109580874443,13.191452980041504,0.00941175501793623,0.000890526280272752,0.3914456069469452,-0.9201480150222778
1784885678141131173,1784885678146769078,-0.017027199268341064,0.07449399679899216,-0.01383460033684969,0.09696516394615173,-0.1256955862045288,12.127229690551758,0.009462002664804459,0.0020965966396033764,0.39185670018196106,-0.9199705123901367
1784885678191379110,1784885678194454685,0.0,-0.01383460033684969,-0.019155599176883698,1.437718152999878,-0.12270283699035645,9.99339771270752,0.010458025150001049,0.0027163648046553135,0.3922235369682312,-0.9198017120361328
1784885678241088400,1784885678249586779,0.0,-0.015962999314069748,-0.015962999314069748,1.1210849285125732,0.12988543510437012,9.57201862335205,0.0107467295601964,0.004081047605723143,0.39255085587501526,-0.9196537733078003
1784885678291004327,1784885678295041824,-0.014898800291121006,-0.053210001438856125,0.0,-1.1899182796478271,-0.535702645778656,9.549273490905762,0.011088477447628975,0.003170059761032462,0.39267465472221375,-0.9196004271507263
1784885678340995096,1784885678352636078,-0.004256799817085266,-0.053210001438856125,0.012770400382578373,-1.478419542312622,-0.2926911413669586,11.53705883026123,0.01153569109737873,0.0045644911006093025,0.39253124594688416,-0.9196501970291138
1784885678390979236,1784885678394473605,0.0063852001912891865,0.06172360107302666,0.011706200428307056,0.5524620413780212,-0.23822306096553802,9.565434455871582,0.014047573320567608,0.006442052777856588,0.39234107732772827,-0.9196853041648865
1784885678440989336,1784885678442787828,0.0,-0.06278780102729797,0.011706200428307056,0.5536591410636902,-0.3687070608139038,8.185775756835938,0.013423447497189045,0.0039038038812577724,0.39206913113594055,-0.9198248386383057
1784885678491013341,1784885678497423324,0.0,-0.059595201164484024,0.011706200428307056,-0.4572925269603729,-0.5093663930892944,6.402693748474121,0.01309376023709774,0.0017971700290217996,0.3915455639362335,-0.920059084892273
1784885678540981909,1784885678543841273,-0.022348200902342796,0.0649162009358406,0.02447660081088543,-0.6458358764648438,0.020949264988303185,13.330316543579102,0.011984964832663536,0.0025659839157015085,0.39110490679740906,-0.9202598333358765
1784885678590987583,1784885678601440452,-0.019155599176883698,0.07662239670753479,0.026605000719428062,-0.0975637212395668,0.1496376097202301,12.154763221740723,0.011030282825231552,0.0032118356321007013,0.3904130756855011,-0.9205635190010071
1784885678640992628,1784885678642972262,0.01809139922261238,-0.03618279844522476,0.02447660081088543,1.1797428131103516,-0.008978256024420261,10.502763748168945,0.01212273258715868,0.0041152541525661945,0.39007580280303955,-0.9206889867782593
1784885678690985934,1784885678694067433,-0.01383460033684969,-0.07875079661607742,0.0063852001912891865,-0.8289923071861267,-0.7541735172271729,8.60236644744873,0.011412613093852997,0.003333941102027893,0.3897981345653534,-0.9208189845085144
1784885678740960279,1784885678746627828,-0.007449400145560503,-0.038311198353767395,0.004256799817085266,-1.1073182821273804,-0.34596213698387146,9.610325813293457,0.012730331160128117,0.0038859068881720304,0.38947367668151855,-0.9209368228912354
1784885678790975119,1784885678795568113,0.014898800291121006,0.05853100121021271,0.019155599176883698,0.656609833240509,-0.07841010391712189,9.124900817871094,0.01389807928353548,0.005667904391884804,0.3892970085144043,-0.9209852814674377
1784885678840988088,1784885678849767151,0.020219799131155014,0.043632201850414276,0.023412400856614113,0.7829039692878723,-0.03890577703714371,9.278728485107422,0.014216601848602295,0.004988891538232565,0.3889354169368744,-0.9211370944976807
1784885678891002169,1784885678893445183,0.011706200428307056,-0.056402601301670074,0.0,-0.18974047899246216,-0.5776011347770691,7.997830867767334,0.01379096508026123,0.0020335910376161337,0.3886920213699341,-0.9212575554847717
1784885678940981495,1784885678953508262,0.011706200428307056,-0.06278780102729797,-0.008513599634170532,-0.6332663297653198,-0.8008604645729065,7.222707748413086,0.012898406945168972,0.00181999197229743,0.3883655369281769,-0.9214086532592773
1784885678990907736,1784885678994444894,-0.043632201850414276,0.06278780102729797,0.01383460033684969,-0.31124621629714966,0.07841010391712189,13.327921867370605,0.011512111872434616,0.004446654114872217,0.3882642090320587,-0.921460747718811
1784885679040923360,1784885679042659842,0.03724699839949608,-0.007449400145560503,0.0,0.8684966564178467,0.152031809091568,10.028712272644043,0.012088986113667488,0.005318740848451853,0.38829168677330017,-0.92143714427948
1784885679090913398,1784885679097946148,0.020219799131155014,-0.01809139922261238,-0.009577799588441849,1.3970166444778442,0.12210428714752197,10.503362655639648,0.012723899446427822,0.007176097482442856,0.3883359432220459,-0.92139732837677
1784885679140871569,1784885679143684125,-0.015962999314069748,-0.06172360107302666,-0.014898800291121006,-1.0546457767486572,-0.689530074596405,8.661623001098633,0.012286401353776455,0.006069803610444069,0.3884444832801819,-0.92136549949646
1784885679190888862,1784885679201466642,-0.010641999542713165,-0.029797600582242012,-0.010641999542713165,-1.1737573146820068,-0.5560533404350281,9.910798072814941,0.013055882416665554,0.005858165677636862,0.38871467113494873,-0.921242356300354
1784885679240963092,1784885679242792895,0.0,0.07662239670753479,-0.014898800291121006,0.21607670187950134,-0.031124621629714966,9.354744911193848,0.013680905103683472,0.007025043945759535,0.3890610933303833,-0.9210788607597351
1784885679290948279,1784885679293466264,0.0063852001912891865,-0.046824801713228226,-0.015962999314069748,0.6476315259933472,-0.4471171498298645,8.396465301513672,0.013655027374625206,0.004232578445225954,0.38923031091690063,-0.9210249185562134
1784885679340912209,1784885679347716417,0.0,-0.05746680125594139,-0.008513599634170532,0.4572925269603729,-0.4944026470184326,7.771578788757324,0.013870869763195515,0.0029248609207570553,0.38937222957611084,-0.9209666848182678
1784885679390862752,1784885679392895175,-0.010641999542713165,0.025540800765156746,0.009577799588441849,-0.9744400978088379,0.02214636467397213,13.891757011413574,0.01287483237683773,0.0026933951303362846,0.3892534077167511,-0.9210320711135864
1784885679440889210,1784885679449697827,-0.022348200902342796,0.046824801713228226,0.014898800291121006,-0.8188169598579407,-0.395043283700943,13.097479820251465,0.012799573130905628,0.0015917022246867418,0.3889341354370117,-0.9211705327033997
1784885679490928908,1784885679493459095,0.0,0.007449400145560503,0.023412400856614113,0.9750386476516724,-0.055665187537670135,10.501566886901855,0.014287374913692474,0.0022382987663149834,0.3886662423610687,-0.9212604761123657
1784885679540869304,1784885679553751506,0.010641999542713165,-0.011706200428307056,0.02766920067369938,1.3539210557937622,-0.4489127993583679,10.468048095703125,0.013305732049047947,0.0013589392183348536,0.3881579041481018,-0.9214910864830017
1784885679590817403,1784885679594604824,-0.02766920067369938,-0.07236559689044952,0.0063852001912891865,-0.773327112197876,-0.578798234462738,8.210315704345703,0.013186823576688766,-0.00021032690710853785,0.38776883482933044,-0.9216575622558594
1784885679640802275,1784885679643602277,-0.0063852001912891865,0.07662239670753479,0.026605000719428062,0.16819266974925995,0.20231004059314728,10.305841445922852,0.014232183806598186,0.003006179817020893,0.3873320519924164,-0.9218208193778992
1784885679691008134,1784885679698455309,0.0,0.07236559689044952,0.029797600582242012,0.4704606235027313,-0.061052143573760986,9.062651634216309,0.015013765543699265,0.0033937066327780485,0.3867408037185669,-0.9220553636550903
1784885679740852729,1784885679744641261,0.014898800291121006,-0.053210001438856125,0.008513599634170532,0.3513490855693817,-0.47165772318840027,9.267355918884277,0.015465425327420235,0.000997239025309682,0.3864322006702423,-0.9221830368041992
1784885679790876373,1784885679801456986,0.017027199268341064,-0.06172360107302666,0.0,-0.0586579404771328,-0.5207388401031494,7.671021938323975,0.013959663920104504,0.00027978798607364297,0.3861461877822876,-0.9223272204399109
1784885679840853061,1784885679842673439,-0.012770400382578373,0.03405439853668213,0.020219799131155014,-0.9696516990661621,-0.15263035893440247,13.511078834533691,0.012579552829265594,0.0021848243195563555,0.38578957319259644,-0.9224938154220581
1784885679890787606,1784885679894311619,0.031925998628139496,-0.004256799817085266,0.012770400382578373,0.9941922426223755,0.228047713637352,9.053074836730957,0.012898150831460953,0.003217308083549142,0.38558000326156616,-0.922573983669281
1784885679940865465,1784885679946850916,0.038311198353767395,0.0,0.010641999542713165,1.2018892765045166,-0.05147533491253853,9.490615844726562,0.012968086637556553,0.004579024855047464,0.38518014550209045,-0.9227342009544373
1784885679990808417,1784885679995352270,0.004256799817085266,-0.08087919652462006,0.0,-0.7416039705276489,-0.6332663297653198,6.693589210510254,0.011505371890962124,0.003576210467144847,0.384988933801651,-0.9228377938270569
1784885680040812792,1784885680049493706,-0.023412400856614113,-0.08194340020418167,-0.005320999771356583,-0.9582791924476624,-0.945111095905304,8.5903959274292,0.011750929988920689,0.004929972812533379,0.3849874436855316,-0.9228292107582092
1784885680090805672,1784885680093634486,0.0,0.0776866003870964,0.012770400382578373,0.5650315880775452,0.3687070608139038,9.974244117736816,0.011667055077850819,0.006443099118769169,0.38507071137428284,-0.922786295413971
1784885680140752262,1784885680152747866,0.0,0.05853100121021271,0.0,0.6673837304115295,-0.24241292476654053,8.898649215698242,0.012345881201326847,0.005420443136245012,0.385133296251297,-0.9227578043937683
1784885680190730755,1784885680194490236,0.015962999314069748,-0.05108160153031349,-0.011706200428307056,0.25677812099456787,-0.5716156363487244,8.772355079650879,0.012696984224021435,0.0025502920616418123,0.38521870970726013,-0.9227297902107239
1784885680240720264,1784885680242641296,-0.028733400627970695,0.02766920067369938,-0.0063852001912891865,-0.7284358739852905,-0.38307225704193115,13.133393287658691,0.011627407744526863,0.0020561721175909042,0.38533690571784973,-0.9226956963539124
1784885680290750065,1784885680297518705,-0.011706200428307056,0.05533840134739876,-0.005320999771356583,-0.773327112197876,-0.14664484560489655,13.649343490600586,0.011802169494330883,0.0027916638646274805,0.3855917155742645,-0.9225850701332092
1784885680340801325,1784885680343648451,0.014898800291121006,0.020219799131155014,-0.004256799817085266,0.8702923059463501,0.09636661410331726,9.50617790222168,0.01259229239076376,0.0034233846236020327,0.3857775628566742,-0.9224948287010193
1784885680390878953,1784885680401496321,0.012770400382578373,0.015962999314069748,0.0,0.8768763542175293,-0.028131868690252304,10.37228012084961,0.012004934251308441,0.003031184896826744,0.38592827320098877,-0.9224410057067871
1784885680440703448,1784885680443912209,-0.008513599634170532,-0.08832859992980957,0.004256799817085266,-0.42377370595932007,-0.4315548539161682,7.358578681945801,0.012084057554602623,-0.0004678643017541617,0.385845810174942,-0.9224793910980225
1784885680490723028,1784885680493234848,-0.008513599634170532,0.09152120351791382,0.01383460033684969,-0.07481880486011505,-0.08200141042470932,11.911751747131348,0.012574389576911926,0.002097122138366103,0.385545015335083,-0.9225963354110718
1784885680540785490,1784885680545846903,-0.005320999771356583,0.08939280360937119,0.01809139922261238,0.30226796865463257,0.023343466222286224,8.946533203125,0.01319735124707222,0.003655374515801668,0.38517284393310547,-0.9227381944656372
1784885680590726766,1784885680594454326,0.004256799817085266,-0.04895320162177086,0.01809139922261238,0.9786299467086792,-0.2932896912097931,9.19552993774414,0.014412306249141693,0.0032926229760050774,0.38486289978027344,-0.9228506684303284
1784885680640748901,1784885680649656431,0.011706200428307056,-0.056402601301670074,0.017027199268341064,0.8541314601898193,-0.3776853084564209,8.644265174865723,0.014770769514143467,0.0023968114983290434,0.3842555284500122,-0.9231009483337402
1784885680690674956,1784885680693424096,-0.019155599176883698,0.03299019858241081,0.020219799131155014,-1.1186907291412354,-0.07422025501728058,13.627197265625,0.013647520914673805,0.002327634021639824,0.38379693031311035,-0.9233090877532959
1784885680740664744,1784885680752467819,-0.02128399908542633,0.0649162009358406,0.02447660081088543,-0.6572083830833435,-0.03172317147254944,14.009072303771973,0.013919215649366379,0.003447919385507703,0.3831552565097809,-0.9235679507255554
1784885680790665733,1784885680794862821,0.026605000719428062,0.022348200902342796,0.014898800291121006,1.1121066808700562,0.08259996026754379,9.78989028930664,0.013971604406833649,0.004049294162541628,0.3828813135623932,-0.9236783981323242
1784885680840704514,1784885680842672354,0.020219799131155014,-0.08832859992980957,0.0,-0.6374561786651611,-0.6811503767967224,6.54455041885376,0.01333890575915575,0.002575512044131756,0.38270384073257446,-0.9237664937973022
1784885680890679878,1784885680897510620,-0.004256799817085266,-0.0840718001127243,0.005320999771356583,-0.5907692313194275,-0.8996212482452393,7.464522361755371,0.012854660861194134,0.004719144199043512,0.38250160217285156,-0.9238486886024475
1784885680940639929,1784885680943552693,0.0,0.07236559689044952,0.02447660081088543,0.5638344883918762,0.1951274424791336,10.703278541564941,0.013841073028743267,0.006831254344433546,0.3823070228099823,-0.9239018559455872
1784885680990979649,1784885681001405081,0.005320999771356583,0.07236559689044952,0.010641999542713165,0.27413609623908997,0.16519992053508759,9.701305389404297,0.013377398252487183,0.006221150979399681,0.3820924162864685,-0.9240015745162964
1784885681040708683,1784885681042951781,0.01809139922261238,-0.038311198353767395,0.0,0.03172317147254944,-0.1693897694349289,9.066243171691895,0.012669621035456657,0.002773827640339732,0.3819480538368225,-0.9240880608558655
1784885681090650727,1784885681092948540,0.0,0.009577799588441849,0.005320999771356583,-1.0001777410507202,-0.6260837316513062,12.657546043395996,0.012078605592250824,0.0019351090304553509,0.381815642118454,-0.9241529703140259
1784885681140685239,1784885681145853527,-0.014898800291121006,0.01809139922261238,0.0,-0.8098387122154236,-0.19393032789230347,12.99512767791748,0.01141815073788166,0.0010672564385458827,0.3819034993648529,-0.9241264462471008
1784885681190616765,1784885681194591329,0.01383460033684969,0.06065940111875534,-0.010641999542713165,0.9241618514060974,0.11911153048276901,9.645041465759277,0.012293413281440735,0.001315051456913352,0.382070928812027,-0.9240456819534302
1784885681240599933,1784885681249811515,0.008513599634170532,0.03086180053651333,-0.020219799131155014,0.7140706181526184,0.2172738015651703,9.17936897277832,0.01142516452819109,0.001204144791699946,0.3825107216835022,-0.923875093460083
1784885681290589766,1784885681293779734,0.0,-0.0713014006614685,-0.022348200902342796,-0.5159504413604736,-0.2753331959247589,6.411073684692383,0.009761376306414604,-0.001531884539872408,0.38282281160354614,-0.9237642288208008
1784885681340644128,1784885681352471294,-0.008513599634170532,-0.07023719698190689,-0.011706200428307056,-0.6697779297828674,-0.45489832758903503,6.942586421966553,0.009198670275509357,-0.0012301189126446843,0.38327115774154663,-0.9235846400260925
1784885681390660587,1784885681394423809,-0.031925998628139496,0.08939280360937119,-0.010641999542713165,-0.09935937076807022,0.04908113554120064,12.482769012451172,0.008789191022515297,0.001210118061862886,0.3835486173629761,-0.9234734177589417
1784885681440604167,1784885681442625333,0.0,-0.009577799588441849,0.0,1.4036006927490234,-0.10474631935358047,10.311826705932617,0.009725569747388363,0.0017656668787822127,0.3836856782436371,-0.923406183719635
1784885681490566690,1784885681498518390,0.005320999771356583,-0.03937539830803871,0.008513599634170532,0.943913996219635,-0.031124621629714966,9.906009674072266,0.009793976321816444,0.001646190183237195,0.3836061358451843,-0.9234387874603271
1784885681540541044,1784885681544818787,-0.014898800291121006,-0.028733400627970695,0.004256799817085266,-1.2832920551300049,-0.2968810200691223,10.02452278137207,0.008431976661086082,9.475304977968335e-05,0.3834770917892456,-0.9235073328018188
1784885681590569335,1784885681600450621,-0.026605000719428062,0.008513599634170532,0.014898800291121006,-1.5053542852401733,-0.7380126714706421,12.12902545928955,0.009752155281603336,0.001053539803251624,0.3829733729362488,-0.9237026572227478
1784885681640642138,1784885681642933526,0.005320999771356583,0.041503798216581345,0.026605000719428062,0.6721721291542053,-0.04728548228740692,8.913612365722656,0.011073185130953789,0.002708649728447199,0.3826843500137329,-0.9238041639328003
1784885681690590495,1784885681693131479,0.005320999771356583,-0.07981500029563904,0.0063852001912891865,-0.020949264988303185,-0.517746090888977,7.697358131408691,0.01131561677902937,-0.0005903095006942749,0.38229966163635254,-0.9239643216133118
1784885681740569164,1784885681745840030,0.0063852001912891865,-0.09471379965543747,0.007449400145560503,-0.5811924338340759,-0.6607996821403503,6.543951511383057,0.011141366325318813,-0.0005670493119396269,0.38177981972694397,-0.9241812825202942
1784885681790548369,1784885681793767388,-0.014898800291121006,0.05108160153031349,0.019155599176883698,-0.06224924325942993,-0.0694318488240242,12.920309066772461,0.009830476716160774,0.002268081996589899,0.3814137279987335,-0.9243447184562683
1784885681840591287,1784885681849914280,-0.015962999314069748,0.06598039716482162,0.019155599176883698,0.31783026456832886,0.09876082092523575,11.341333389282227,0.010606558993458748,0.004640541505068541,0.38104864954948425,-0.9244778156280518
1784885681890517500,1784885681893547453,0.012770400382578373,-0.041503798216581345,0.0063852001912891865,1.1336544752120972,-0.07781155407428741,10.023923873901367,0.011746508069336414,0.002984490944072604,0.38095206022262573,-0.924510657787323
1784885681940525460,1784885681952631181,0.014898800291121006,-0.046824801713228226,0.0,0.4273650050163269,0.07062894850969315,9.564835548400879,0.011652128770947456,0.002660166472196579,0.3808518648147583,-0.924554169178009
1784885681990488371,1784885681994334878,-0.03724699839949608,-0.025540800765156746,0.0,-0.9014168977737427,-0.760757565498352,10.62007999420166,0.010909434407949448,0.0020401834044605494,0.380595326423645,-0.9246704578399658
1784885682040474063,1784885682042530539,0.005320999771356583,0.03618279844522476,0.019155599176883698,0.45250412821769714,0.2454056739807129,9.122507095336914,0.010609938763082027,0.003642753465101123,0.38050657510757446,-0.9247055649757385
1784885682090486513,1784885682098451935,0.029797600582242012,0.0,0.028733400627970695,0.3705027103424072,-0.5482721924781799,9.241618156433105,0.013228580355644226,0.0035092446487396955,0.38036563992500305,-0.9247302412986755
1784885682140526848,1784885682143895236,0.011706200428307056,-0.07555820047855377,-0.014898800291121006,-0.5817909836769104,-0.9929951429367065,7.141903400421143,0.012963623739778996,0.0027563627809286118,0.3800490200519562,-0.9248666763305664
1784885682190500914,1784885682200513314,0.005320999771356583,-0.08620020002126694,-0.015962999314069748,-0.5764040350914001,-0.9265560507774353,7.393294811248779,0.013132143765687943,0.004225630313158035,0.3800945281982422,-0.9248400926589966
1784885682240511272,1784885682242761277,-0.03299019858241081,0.06385199725627899,0.0,0.5506663918495178,0.2322375625371933,12.15296745300293,0.011903614737093449,0.007674285676330328,0.3802892565727234,-0.9247545599937439
1784885682290458045,1784885682292626488,0.010641999542713165,-0.031925998628139496,-0.009577799588441849,1.6226701736450195,-0.19572599232196808,10.710460662841797,0.013740221969783306,0.008431647904217243,0.3805764615535736,-0.9246042370796204
1784885682340433056,1784885682345813371,0.005320999771356583,-0.028733400627970695,-0.02447660081088543,0.9235633015632629,-0.08439560979604721,9.852139472961426,0.014022398740053177,0.00839884765446186,0.3810504078865051,-0.9244051575660706
1784885682390477871,1784885682393650824,-0.01383460033684969,-0.04469640180468559,-0.012770400382578373,-1.158793568611145,-0.34835633635520935,10.107721328735352,0.01309243030846119,0.007538073696196079,0.3813104033470154,-0.9243189692497253
1784885682440492506,1784885682448546212,0.0,-0.019155599176883698,-0.004256799817085266,-1.2886790037155151,-0.42197805643081665,11.727996826171875,0.014584673568606377,0.006369096226990223,0.38145679235458374,-0.9242449998855591
1784885682490570762,1784885682492550397,0.0,0.05853100121021271,0.009577799588441849,0.569819986820221,-0.4728548228740692,9.12849235534668,0.01726408861577511,0.007647691294550896,0.3814294636249542,-0.9242004156112671
1784885682540418753,1784885682552795179,-0.008513599634170532,0.03937539830803871,0.009577799588441849,0.7775169610977173,-0.20769698917865753,8.544306755065918,0.01696857064962387,0.0069892434403300285,0.38120919466018677,-0.9243019819259644
1784885682590411946,1784885682593922315,0.004256799817085266,-0.08087919652462006,0.005320999771356583,-0.14664484560489655,-0.26336216926574707,6.645705223083496,0.01581345498561859,0.0029731595423072577,0.3809852600097656,-0.9244364500045776
1784885682640489220,1784885682644046619,-0.019155599176883698,0.08300759643316269,0.025540800765156746,-0.5847837328910828,-0.16998831927776337,13.573925971984863,0.014969559386372566,0.003049429738894105,0.3805941343307495,-0.9246113300323486
1784885682690789019,1784885682697529980,-0.022348200902342796,0.0840718001127243,0.03299019858241081,-0.3208230137825012,0.2256534993648529,12.559383392333984,0.014059570617973804,0.0020383265800774097,0.37995287775993347,-0.9248921275138855
1784885682740439871,1784885682743731177,0.02128399908542633,-0.015962999314069748,0.02447660081088543,1.4634557962417603,-0.1825578808784485,10.643423080444336,0.014780866913497448,0.002867666073143482,0.37956371903419495,-0.9250383973121643
1784885682790469985,1784885682800574001,0.007449400145560503,-0.04576060175895691,0.014898800291121006,1.2773065567016602,-0.2059013396501541,9.700706481933594,0.015918530523777008,0.002955222735181451,0.379081666469574,-0.9252168536186218
1784885682840383892,1784885682844979871,-0.011706200428307056,-0.03086180053651333,0.010641999542713165,-1.157596468925476,-0.30945056676864624,10.488398551940918,0.015092597343027592,0.0021613184362649918,0.37866029143333435,-0.9254055619239807
1784885682890396009,1784885682893067771,0.0063852001912891865,0.06065940111875534,0.019155599176883698,0.9133879542350769,-0.02214636467397213,9.173383712768555,0.016211465001106262,0.004159276839345694,0.3785442113876343,-0.925427258014679
1784885682940471098,1784885682945845210,0.020219799131155014,0.04043959826231003,0.020219799131155014,0.5416881442070007,-0.16340425610542297,9.337386131286621,0.016139188781380653,0.0027800528332591057,0.378340482711792,-0.9255170226097107
1784885682990430463,1784885682993641410,0.01383460033684969,-0.06172360107302666,-0.07342980057001114,-0.41599252820014954,-0.702099621295929,8.037335395812988,0.015092491172254086,0.0011808578856289387,0.37888073921203613,-0.9253169894218445
1784885683040392555,1784885683048736575,0.007449400145560503,-0.08620020002126694,-0.15111640095710754,-0.1562216579914093,-0.4315548539161682,6.785766124725342,0.01494766864925623,0.0029918551445007324,0.38211125135421753,-0.9239858984947205
1784885683090362612,1784885683092524963,0.06065940111875534,-0.019155599176883698,-0.1862349957227707,-0.8421604633331299,-0.7571662664413452,9.90241813659668,0.01583724468946457,0.0030883054714649916,0.3854118883609772,-0.9225989580154419
1784885683140341204,1784885683153350749,0.03724699839949608,-0.06065940111875534,-0.20326219499111176,-0.45908817648887634,-0.8194155097007751,8.283937454223633,0.016212644055485725,0.003426140174269676,0.3905368745326996,-0.9204334020614624
1784885683190317871,1784885683194284492,-0.04788900166749954,0.023412400856614113,-0.1862349957227707,-0.12749123573303223,-0.9080010056495667,10.242993354797363,0.014237058348953724,0.0038819466717541218,0.3940894901752472,-0.9189488291740417
1784885683240455423,1784885683243723122,0.0,0.041503798216581345,-0.18517079949378967,0.8409633040428162,0.34416648745536804,9.677961349487305,0.015271478332579136,0.0045805382542312145,0.39786621928215027,-0.917300283908844
1784885683290341324,1784885683296496737,-0.03724699839949608,0.03405439853668213,-0.17772139608860016,0.7266402244567871,-0.2861070930957794,9.296086311340332,0.015832729637622833,0.0033141791354864836,0.4033772051334381,-0.9148861765861511
1784885683340317102,1784885683342444198,0.004256799817085266,-0.03618279844522476,-0.20326219499111176,0.37229835987091064,0.11671733111143112,9.731232643127441,0.014166072010993958,0.002536859130486846,0.4072013795375824,-0.9132202863693237
1784885683390303175,1784885683400448539,0.019155599176883698,0.012770400382578373,-0.2000696063041687,1.212663173675537,0.9235633015632629,11.55321979522705,0.015314849093556404,0.004796474706381559,0.4130318760871887,-0.9105703830718994
1784885683440398881,1784885683445265841,0.005320999771356583,-0.07875079661607742,-0.21496839821338654,0.32501286268234253,-0.7541735172271729,7.9864583015441895,0.016542591154575348,0.0014599906280636787,0.4168299436569214,-0.90882807970047
1784885683490520361,1784885683492768755,0.017027199268341064,0.0,-0.18304240703582764,-0.7936778664588928,-0.5632359385490417,13.274052619934082,0.014728204347193241,0.002348140347748995,0.420269638299942,-0.9072719812393188
1784885683540332069,1784885683545661947,0.04469640180468559,-0.025540800765156746,-0.1872992068529129,-1.0630255937576294,-0.6500257253646851,9.769539833068848,0.016156896948814392,0.0013776903506368399,0.425441175699234,-0.904836118221283
1784885683590279110,1784885683593838602,-0.0840718001127243,0.04895320162177086,-0.1553732007741928,0.7936778664588928,-0.8535329103469849,11.083357810974121,0.015881171450018883,0.0034888936206698418,0.42855605483055115,-0.9033641219139099
1784885683640273459,1784885683648905865,-0.056402601301670074,0.02447660081088543,-0.16388680040836334,-0.22864626348018646,-0.6362590789794922,10.555436134338379,0.015254292637109756,0.0034897541627287865,0.4331871271133423,-0.9011633396148682
1784885683690310377,1784885683693477756,-0.0063852001912891865,0.01809139922261238,-0.1553732007741928,0.5692214369773865,0.09038111567497253,9.245808601379395,0.016986357048153877,0.0044131590984761715,0.43642085790634155,-0.8995667099952698
1784885683740333370,1784885683752500309,-0.04895320162177086,0.035118598490953445,-0.1479237973690033,0.7691372632980347,-0.5674257874488831,8.833407402038574,0.017838018015027046,0.0061280676163733006,0.44130200147628784,-0.8971555233001709
1784885683790259674,1784885683793501654,-0.005320999771356583,-0.046824801713228226,-0.1681436002254486,0.26815059781074524,0.3974374830722809,9.301473617553711,0.016149653121829033,0.004728249274194241,0.4444953501224518,-0.895618200302124
1784885683840261892,1784885683842820300,0.029797600582242012,-0.05108160153031349,-0.19794119894504547,-0.5614402890205383,-1.2102689743041992,8.47667121887207,0.018449237570166588,0.004527818411588669,0.44776004552841187,-0.8939471244812012
1784885683890293422,1784885683897468787,0.020219799131155014,-0.0649162009358406,-0.21390420198440552,0.19393032789230347,-0.739209771156311,8.184577941894531,0.017547735944390297,0.004378565587103367,0.45303142070770264,-0.8913062810897827
1784885683940291456,1784885683943780939,0.0063852001912891865,0.0,-0.15750159323215485,-0.5692214369773865,-0.8505401611328125,13.246519088745117,0.018300676718354225,0.006884359288960695,0.45599108934402466,-0.889764666557312
1784885683990232757,1784885684000487403,0.06917300075292587,-0.011706200428307056,-0.19581280648708344,-0.7218518257141113,-0.5392939448356628,10.797250747680664,0.01842668652534485,0.006093937437981367,0.4611329734325409,-0.8871138095855713
1784885684040256756,1784885684042751303,-0.08087919652462006,0.05533840134739876,-0.15218059718608856,0.7936778664588928,-0.5823895335197449,9.552865028381348,0.017418764531612396,0.008055828511714935,0.4642612040042877,-0.8854854702949524
1784885684090605343,1784885684092582868,0.043632201850414276,0.010641999542713165,-0.1734645962715149,0.739209771156311,0.3968389332294464,10.806229591369629,0.01767124980688095,0.009130368009209633,0.4676688015460968,-0.8836750388145447
1784885684140301315,1784885684145944522,0.020219799131155014,0.035118598490953445,-0.07342980057001114,0.5770025849342346,-0.3992331326007843,9.421183586120605,0.01910676807165146,0.007967744953930378,0.47204142808914185,-0.8813283443450928
1784885684190217832,1784885684192598042,0.012770400382578373,-0.06917300075292587,-0.01383460033684969,-0.27234044671058655,-1.1049240827560425,6.774393558502197,0.01780826412141323,0.006181764882057905,0.47235649824142456,-0.8812010288238525
1784885684240268533,1784885684250716173,0.0,-0.0776866003870964,0.0,-0.6763619780540466,-0.41778817772865295,6.392518520355225,0.0171706173568964,0.006908508017659187,0.4726901054382324,-0.881029486656189
1784885684290213879,1784885684294247510,-0.026605000719428062,0.07875079661607742,-0.009577799588441849,0.4279635548591614,-0.26994624733924866,13.66191291809082,0.017188385128974915,0.009545351378619671,0.4730241000652313,-0.8808252215385437
1784885684340183203,1784885684352499993,-0.010641999542713165,0.08939280360937119,0.0,0.16340425610542297,-0.28790274262428284,12.381613731384277,0.018300330266356468,0.009637624956667423,0.47317931056022644,-0.8807184100151062
1784885684390188114,1784885684394517112,0.0,-0.017027199268341064,-0.004256799817085266,1.3521254062652588,-0.22505494952201843,10.072406768798828,0.019554762169718742,0.00969544518738985,0.47315898537635803,-0.8807017207145691
1784885684440201025,1784885684442761303,-0.008513599634170532,-0.04469640180468559,0.0,-1.2234370708465576,-0.23702596127986908,8.944138526916504,0.01855270192027092,0.007781527005136013,0.4731968939304352,-0.8807221055030823
1784885684490201289,1784885684497466217,0.0,-0.03405439853668213,0.0063852001912891865,-1.2066776752471924,-0.2627636194229126,10.582371711730957,0.01981828175485134,0.007404658477753401,0.47309204936027527,-0.8807539939880371
1784885684540153374,1784885684543757194,-0.0063852001912891865,0.07236559689044952,0.01809139922261238,0.42856210470199585,-0.35733458399772644,9.049483299255371,0.023017026484012604,0.008842403069138527,0.47281134128570557,-0.8808138370513916
1784885684590198891,1784885684600512345,0.009577799588441849,0.03299019858241081,0.015962999314069748,1.1294646263122559,-0.4225766062736511,8.333019256591797,0.022415416315197945,0.00847148522734642,0.4724789261817932,-0.8810111880302429
1784885684640237390,1784885684643392661,0.0,-0.05853100121021271,0.011706200428307056,-0.26994624733924866,-0.050876785069704056,6.4266357421875,0.019645649939775467,0.005932460073381662,0.4722505807876587,-0.8812204599380493
1784885684690195494,1784885684692563409,-0.019155599176883698,0.0649162009358406,0.08726440370082855,-0.3926490843296051,0.4471171498298645,13.819332122802734,0.018853753805160522,0.00736678671091795,0.47123607993125916,-0.8817699551582336
1784885684740168039,1784885684745798322,-0.056402601301670074,0.025540800765156746,0.14685960114002228,0.061052143573760986,0.7080851197242737,11.133636474609375,0.018898380920290947,0.00704603036865592,0.46767061948776245,-0.8836677670478821
1784885684790117995,1784885684792798294,0.07236559689044952,0.050017401576042175,0.15856580436229706,0.47884032130241394,-0.15322890877723694,8.681973457336426,0.02103865146636963,0.005077911540865898,0.46456292271614075,-0.8852707743644714
1784885684840114223,1784885684849749252,0.06385199725627899,0.06065940111875534,0.16282260417938232,0.09038111567497253,-0.49978959560394287,10.994772911071777,0.021458622068166733,0.00250726705417037,0.4601065516471863,-0.8875959515571594
1784885684890125300,1784885684893440030,-0.015962999314069748,0.023412400856614113,0.15963000059127808,0.4824316203594208,-0.4926069974899292,9.040505409240723,0.021273916587233543,0.004140712320804596,0.4568353593349457,-0.8892822861671448
1784885684940165077,1784885684952539656,0.01809139922261238,0.06065940111875534,0.1862349957227707,1.1198878288269043,-0.9373299479484558,10.597334861755371,0.020382435992360115,0.003991562873125076,0.4523797631263733,-0.891578733921051
1784885684990191986,1784885684994424756,0.0,-0.04469640180468559,0.17665719985961914,-0.22086510062217712,-0.8858546018600464,9.715670585632324,0.01910540461540222,0.002413226990029216,0.44908607006073,-0.8932760953903198
1784885685040094306,1784885685042621793,-0.03618279844522476,-0.04788900166749954,0.17772139608860016,-0.3908534348011017,0.5961562395095825,8.775347709655762,0.018333416432142258,0.0031009968370199203,0.44593095779418945,-0.8948692679405212
1784885685090096114,1784885685097520448,0.0,-0.056402601301670074,0.2000696063041687,0.038307227194309235,0.6165069341659546,8.604761123657227,0.01895928382873535,0.0024477604310959578,0.4408532977104187,-0.8973706960678101
1784885685140077611,1784885685141793987,-0.019155599176883698,0.041503798216581345,0.16388680040836334,-0.5117605924606323,-0.04369417950510979,13.712191581726074,0.020146647468209267,0.003677535569295287,0.4376353621482849,-0.8989143967628479
1784885685190126913,1784885685201453656,-0.04895320162177086,0.0,0.09258539974689484,-0.7003039717674255,0.5315127968788147,11.480795860290527,0.018843382596969604,0.0035645519383251667,0.4332941174507141,-0.9010436534881592
1784885685240187862,1784885685242900990,0.06065940111875534,0.022348200902342796,0.0,0.6530184745788574,-0.13108253479003906,9.266159057617188,0.020988207310438156,0.003393310820683837,0.43272602558135986,-0.9012699723243713
1784885685290043727,1784885685293711465,-0.004256799817085266,-0.05427420139312744,-0.020219799131155014,0.13706804811954498,-1.1982979774475098,9.906607627868652,0.02067449316382408,0.00179103238042444,0.4327104091644287,-0.9012892842292786
1784885685340140115,1784885685347930862,-0.015962999314069748,-0.06172360107302666,-0.025540800765156746,0.13527239859104156,-1.181538462638855,10.717643737792969,0.020036878064274788,0.0020275076385587454,0.4335896074771881,-0.9008805751800537
1784885685390068730,1784885685392835499,-0.0063852001912891865,0.056402601301670074,-0.028733400627970695,0.13706804811954498,0.44651859998703003,11.62564468383789,0.019854506477713585,0.004589736927300692,0.4343629479408264,-0.900502622127533
1784885685440120532,1784885685449581920,0.011706200428307056,0.07236559689044952,-0.02766920067369938,0.4076128304004669,0.7266402244567871,11.124059677124023,0.02059883438050747,0.005262690130621195,0.43526163697242737,-0.9000480771064758
1784885685490121026,1784885685493461494,0.029797600582242012,-0.04788900166749954,-0.03937539830803871,0.7775169610977173,-0.8409633040428162,7.584232330322266,0.022281847894191742,0.0037525019142776728,0.4357699751853943,-0.89976966381073
1784885685540009702,1784885685541541862,-0.05533840134739876,-0.023412400856614113,-0.02128399908542633,-0.9750386476516724,-0.23343466222286224,10.76732349395752,0.020386533811688423,0.003468821756541729,0.4364222586154938,-0.8994995355606079
1784885685590043284,1784885685595433063,-0.05533840134739876,-0.004256799817085266,-0.009577799588441849,-1.136048674583435,-0.25917232036590576,10.858901977539062,0.020035017281770706,0.0036369517911225557,0.43714407086372375,-0.8991560935974121
1784885685639994062,1784885685643670706,0.05853100121021271,0.050017401576042175,-0.02447660081088543,0.9959878921508789,0.12928688526153564,10.13286018371582,0.021718744188547134,0.004998903721570969,0.4373489022254944,-0.899010956287384
1784885685689996963,1784885685699189166,0.04256799817085266,0.017027199268341064,-0.03405439853668213,0.9020154476165771,-0.5045779943466187,9.821015357971191,0.022230755537748337,0.0038588447496294975,0.4377902150154114,-0.8987891674041748
1784885685740333911,1784885685741775158,-0.014898800291121006,-0.04576060175895691,-0.0063852001912891865,0.046088382601737976,-1.1869255304336548,10.921151161193848,0.021986961364746094,0.002731984481215477,0.43814241886138916,-0.8986276984214783
1784885685790355273,1784885685801616413,-0.03086180053651333,-0.050017401576042175,-0.011706200428307056,-0.4124012291431427,-0.7679401636123657,11.005546569824219,0.02136184275150299,0.00209662108682096,0.43836989998817444,-0.8985335826873779
1784885685840012480,1784885685842674986,0.008513599634170532,0.06598039716482162,-0.03299019858241081,0.5853822827339172,0.8553285598754883,10.866683006286621,0.022131148725748062,0.004037523176521063,0.4386815130710602,-0.8983561992645264
1784885685889980275,1784885685895920794,0.046824801713228226,-0.03405439853668213,-0.022348200902342796,0.5949591398239136,-0.6506242752075195,8.44674301147461,0.023588955402374268,0.0028604180552065372,0.4390510618686676,-0.8981431126594543
1784885685940047167,1784885685946772041,0.03086180053651333,-0.04576060175895691,-0.017027199268341064,0.5650315880775452,-0.9666589498519897,7.816469669342041,0.023295823484659195,0.002577428473159671,0.43965524435043335,-0.8978559970855713
1784885685990139686,1784885685992613846,-0.04469640180468559,-0.035118598490953445,-0.011706200428307056,-0.7368155717849731,-0.011372458189725876,10.54645824432373,0.020082490518689156,0.003264595987275243,0.4401404559612274,-0.8976936340332031
1784885686040012684,1784885686049562950,-0.04576060175895691,-0.041503798216581345,0.07236559689044952,-0.363918662071228,-0.038307227194309235,9.030928611755371,0.02032633125782013,0.003933298401534557,0.4389989674091339,-0.8982441425323486
1784885686089951212,1784885686093464787,0.06598039716482162,0.03086180053651333,0.0713014006614685,0.8990226984024048,0.29448679089546204,10.647613525390625,0.022358711808919907,0.0051629869267344475,0.4376656115055084,-0.8988401293754578
1784885686139926921,1784885686141505908,0.0063852001912891865,-0.019155599176883698,0.07555820047855377,0.4728548228740692,-1.746570110321045,12.393585205078125,0.023001529276371002,0.00457527581602335,0.43604108691215515,-0.8996163606643677
1784885686189919923,1784885686194927200,-0.043632201850414276,0.011706200428307056,0.07342980057001114,0.20889408886432648,-1.2425906658172607,10.627861022949219,0.023265354335308075,0.004747816361486912,0.43347010016441345,-0.9008502960205078
1784885686240008635,1784885686243842480,-0.012770400382578373,-0.04576060175895691,0.103227399289608,0.16519992053508759,0.2172738015651703,9.301473617553711,0.02033129334449768,0.0036915226373821497,0.43205806612968445,-0.9016042351722717
1784885686290535972,1784885686299725083,-0.01383460033684969,-0.06917300075292587,0.08726440370082855,-0.2651578485965729,0.0293289702385664,7.315483093261719,0.01911030150949955,0.004036060534417629,0.4297017455101013,-0.9027547240257263
1784885686340144101,1784885686342705861,-0.010641999542713165,0.06704460084438324,0.05427420139312744,0.27712884545326233,0.0005985504249110818,13.601459503173828,0.01917818747460842,0.006644659675657749,0.4285201132297516,-0.9032993316650391
1784885686389883157,1784885686401578351,-0.026605000719428062,0.08939280360937119,0.0,-0.0586579404771328,0.038307227194309235,11.291054725646973,0.018021680414676666,0.007161149755120277,0.42762795090675354,-0.9037420749664307
1784885686439912858,1784885686448189020,0.02447660081088543,0.0,-0.03086180053651333,1.0935516357421875,-0.3495534360408783,9.855731010437012,0.019326014444231987,0.007165944669395685,0.4279188811779022,-0.9035773873329163
1784885686489936634,1784885686491967485,-0.009577799588441849,-0.05108160153031349,-0.029797600582242012,-0.7906851172447205,-0.5781996846199036,9.361927032470703,0.01746208593249321,0.006007943768054247,0.42858362197875977,-0.9033085107803345
1784885686539963113,1784885686546751683,-0.0063852001912891865,-0.04469640180468559,-0.025540800765156746,-1.0073603391647339,-0.42676645517349243,10.311826705932617,0.017139723524451256,0.005398739129304886,0.4295676350593567,-0.9028511643409729
1784885686589889828,1784885686592570128,0.0,0.08087919652462006,-0.043632201850414276,0.591367781162262,0.13706804811954498,9.333196640014648,0.018430810421705246,0.008124217391014099,0.43019044399261475,-0.9025087356567383
1784885686639882960,1784885686650788855,0.005320999771356583,0.05427420139312744,-0.007449400145560503,0.6751648783683777,0.07362169772386551,8.871115684509277,0.01888003759086132,0.007408094592392445,0.43074747920036316,-0.9022397994995117
1784885686689890535,1784885686691553233,-0.007449400145560503,-0.07662239670753479,-0.015962999314069748,-0.13706804811954498,-0.3776853084564209,6.602609634399414,0.018003001809120178,0.003629976185038686,0.4309457838535309,-0.9021861553192139
1784885686739884778,1784885686742581649,-0.02447660081088543,0.026605000719428062,-0.023412400856614113,-0.23582886159420013,-0.11851298063993454,12.905345916748047,0.01724454201757908,0.005289579275995493,0.43164151906967163,-0.9018599987030029
1784885686789836045,1784885686795588387,-0.02766920067369938,0.05533840134739876,0.0063852001912891865,-0.30885201692581177,-0.053270988166332245,12.810175895690918,0.01690695434808731,0.005399252753704786,0.43159937858581543,-0.9018858671188354
1784885686839888817,1784885686841788168,0.014898800291121006,0.023412400856614113,-0.01809139922261238,1.161187767982483,-0.3321954905986786,10.587160110473633,0.018794097006320953,0.005422691348940134,0.4316675066947937,-0.9018159508705139
1784885686889832790,1784885686898527728,0.014898800291121006,0.0,0.0,1.1222820281982422,-0.47644612193107605,9.866504669189453,0.01902204006910324,0.006337051745504141,0.4319918155670166,-0.9016498327255249
1784885686939963884,1784885686943665099,-0.0063852001912891865,-0.04895320162177086,-0.011706200428307056,-0.7140706181526184,-0.6769605278968811,8.93276596069336,0.017678767442703247,0.005491399206221104,0.43213096261024475,-0.9016159772872925
1784885686989854197,1784885687002509556,0.0,-0.04576060175895691,-0.011706200428307056,-1.0169371366500854,-0.6093243360519409,10.023923873901367,0.01758830063045025,0.006844940595328808,0.4324771463871002,-0.9014426469802856
1784885687039894772,1784885687043946866,0.01383460033684969,0.08726440370082855,-0.04043959826231003,0.6434416770935059,0.36152446269989014,9.319430351257324,0.018355611711740494,0.008391639217734337,0.43276721239089966,-0.9012749791145325
1784885687089924518,1784885687091609343,0.023412400856614113,-0.046824801713228226,-0.0063852001912891865,0.47405192255973816,-0.17836801707744598,8.639476776123047,0.0187416672706604,0.0065613193437457085,0.4331560432910919,-0.9010953307151794
1784885687139829965,1784885687146817676,0.011706200428307056,-0.07449399679899216,-0.007449400145560503,0.29448679089546204,-0.4626794755458832,7.2753801345825195,0.018658053129911423,0.005875199101865292,0.43327856063842773,-0.9010428786277771
1784885687189841084,1784885687192481815,-0.02766920067369938,0.004256799817085266,0.0,-1.1097124814987183,-0.3166331648826599,12.688071250915527,0.017226988449692726,0.005774988792836666,0.43347907066345215,-0.9009757041931152
1784885687239772880,1784885687250788057,-0.041503798216581345,0.012770400382578373,0.04043959826231003,-0.7032967209815979,0.1646013706922531,12.374431610107422,0.016913024708628654,0.006245847791433334,0.43336525559425354,-0.9010332226753235
1784885687289957307,1784885687291649132,0.04469640180468559,0.023412400856614113,0.06917300075292587,0.8637082576751709,0.15442600846290588,9.968856811523438,0.018789665773510933,0.006802358664572239,0.4320574104785919,-0.9016199111938477
1784885687339835888,1784885687342681129,-0.019155599176883698,-0.06810879707336426,0.15856580436229706,-0.5141547918319702,-1.0636241436004639,9.217676162719727,0.018167546018958092,0.004915682598948479,0.42981523275375366,-0.9027159810066223
1784885687389767555,1784885687395558318,-0.03618279844522476,-0.01383460033684969,0.24583019316196442,0.4315548539161682,-1.1569979190826416,9.34516716003418,0.01976696588099003,0.005937717854976654,0.4238966107368469,-0.905470609664917
1784885687439762490,1784885687441634252,0.0,-0.06385199725627899,0.2788203954696655,0.46148237586021423,-0.24001871049404144,8.003816604614258,0.018550291657447815,0.004606242757290602,0.41903960704803467,-0.9077621102333069
1784885687489776645,1784885687499521645,0.0,-0.05533840134739876,0.2820129990577698,0.2998737692832947,-0.9840168952941895,7.9846625328063965,0.019468840211629868,0.003269307082518935,0.41157063841819763,-0.911159336566925
1784885687539866938,1784885687542929315,-0.017027199268341064,-0.02128399908542633,0.26072901487350464,-0.31124621629714966,0.23523031175136566,8.559869766235352,0.017263738438487053,0.004744372796267271,0.4067343771457672,-0.9133662581443787
1784885687589840524,1784885687602732593,-0.019155599176883698,-0.04788900166749954,0.28626981377601624,0.8307879567146301,-0.11971008032560349,7.927201747894287,0.016592295840382576,0.004274493549019098,0.3988707363605499,-0.9168423414230347
1784885687639805149,1784885687643776994,-0.03937539830803871,0.010641999542713165,0.2639215886592865,-0.9917980432510376,0.17058686912059784,10.51174259185791,0.01625342294573784,0.003819169942289591,0.39387041330337524,-0.9190096259117126
1784885687689715744,1784885687692674709,0.03086180053651333,0.025540800765156746,0.2256104052066803,0.6416460275650024,0.31364041566848755,12.325349807739258,0.018242783844470978,0.005021359771490097,0.38896283507347107,-0.9210543632507324
1784885687739712142,1784885687747812422,0.043632201850414276,0.009577799588441849,0.050017401576042175,-0.1107318252325058,0.3166331648826599,10.655394554138184,0.01726084016263485,0.0032331636175513268,0.38596293330192566,-0.9223424196243286
1784885687789722390,1784885687793554440,-0.020219799131155014,0.06065940111875534,0.017027199268341064,0.7044938206672668,-1.2288240194320679,11.203666687011719,0.017435170710086823,0.004466854501515627,0.3854173719882965,-0.9225621223449707
1784885687839780946,1784885687850578339,-0.03618279844522476,0.04788900166749954,0.01383460033684969,0.7158662676811218,-0.872686505317688,9.967659950256348,0.016438361257314682,0.0038074429612606764,0.3848128020763397,-0.9228357076644897
1784885687890213414,1784885687892578313,-0.010641999542713165,-0.02447660081088543,0.04256799817085266,0.29628247022628784,0.13946224749088287,9.501389503479004,0.014224996790289879,0.0027972387615591288,0.384323388338089,-0.9230799674987793
1784885687939719306,1784885687942730597,0.06172360107302666,0.0,0.011706200428307056,-0.8038532137870789,-0.9576806426048279,9.84376049041748,0.01615109108388424,0.0026995367370545864,0.3838158845901489,-0.9232597947120667
1784885687989687134,1784885687995637504,0.041503798216581345,0.038311198353767395,0.005320999771356583,-0.12509703636169434,-0.8553285598754883,11.625045776367188,0.01658187061548233,0.0031607637647539377,0.3829113841056824,-0.9236261248588562
1784885688039714033,1784885688043336760,-0.04576060175895691,0.026605000719428062,0.031925998628139496,1.0217255353927612,-0.22744916379451752,9.358335494995117,0.015377641655504704,0.0048833624459803104,0.3824024200439453,-0.923850417137146
1784885688089693811,1784885688099535021,-0.04469640180468559,0.0,0.04895320162177086,0.7332242727279663,-0.33039984107017517,8.645462036132812,0.015660051256418228,0.00524869142100215,0.3818293511867523,-0.9240806102752686
1784885688139755318,1784885688143961502,0.01809139922261238,-0.04788900166749954,0.015962999314069748,-0.35673603415489197,0.5758054852485657,10.069413185119629,0.01544143632054329,0.0039100307039916515,0.38152608275413513,-0.9242162704467773
1784885688189940531,1784885688202602651,0.038311198353767395,-0.038311198353767395,-0.007449400145560503,-0.8631097078323364,0.6314706802368164,9.926959037780762,0.016173766925930977,0.0049896640703082085,0.3811839520931244,-0.9243395328521729
1784885688239669935,1784885688244976747,-0.022348200902342796,0.06917300075292587,0.03299019858241081,0.7038952708244324,-1.0540472269058228,10.378265380859375,0.017440950497984886,0.00753427017480135,0.38060110807418823,-0.9245395064353943
1784885688289978094,1784885688292478030,-0.03405439853668213,-0.019155599176883698,0.0,0.42018237709999084,0.1909375786781311,9.622296333312988,0.014657209627330303,0.006086798384785652,0.38053879141807556,-0.9246240854263306
1784885688339736809,1784885688348317396,-0.022348200902342796,-0.038311198353767395,0.005320999771356583,0.24600422382354736,-0.0628477931022644,8.605359077453613,0.014118608087301254,0.005687729921191931,0.38057756423950195,-0.9246190786361694
1784885688390003752,1784885688393438319,0.05746680125594139,0.035118598490953445,-0.014898800291121006,-0.5781996846199036,-0.15143325924873352,13.12501335144043,0.01539697963744402,0.004326214082539082,0.38044479489326477,-0.9246606826782227
1784885688439691107,1784885688450606799,0.04576060175895691,0.04469640180468559,-0.017027199268341064,-0.656609833240509,-0.6787561774253845,11.86506462097168,0.014934767037630081,0.00368496379815042,0.38061603903770447,-0.9246005415916443
1784885688489601357,1784885688492597003,-0.043632201850414276,0.0,-0.017027199268341064,1.314416766166687,-0.6093243360519409,9.524134635925293,0.014347204007208347,0.0050765895284712315,0.38090604543685913,-0.9244838953018188
1784885688539567822,1784885688542929010,0.0,-0.05427420139312744,-0.010641999542713165,-0.3513490855693817,0.2890998423099518,9.318232536315918,0.013498269021511078,0.0027164635248482227,0.3813202381134033,-0.924335777759552
1784885688589616886,1784885688596433547,0.035118598490953445,-0.025540800765156746,-0.009577799588441849,-0.3280056416988373,0.7338228225708008,10.475231170654297,0.01247281301766634,0.003914882428944111,0.3818514943122864,-0.9241265654563904
1784885688639644769,1784885688642021444,0.004256799817085266,0.03086180053651333,-0.03086180053651333,0.37888240814208984,-1.2599486112594604,10.390236854553223,0.013700198382139206,0.005159035325050354,0.38230448961257935,-0.9239158034324646
1784885688689929060,1784885688699550449,-0.011706200428307056,0.03405439853668213,-0.035118598490953445,1.0199298858642578,-1.1875240802764893,12.132616996765137,0.012614874169230461,0.00494475569576025,0.38288265466690063,-0.9236930012702942
1784885688739625525,1784885688742827995,-0.03086180053651333,-0.043632201850414276,0.0,0.08439560979604721,0.3645172119140625,8.859145164489746,0.010336007922887802,0.004400437697768211,0.38310596346855164,-0.9236314296722412
1784885688789907076,1784885688802559735,-0.02447660081088543,-0.04256799817085266,-0.05746680125594139,-0.31783026456832886,0.6159083843231201,9.283516883850098,0.010317682288587093,0.0031712560448795557,0.3841957747936249,-0.9231839776039124
1784885688839668495,1784885688844134162,0.03724699839949608,-0.0063852001912891865,-0.08939280360937119,-0.4495113492012024,-0.4082113802433014,8.615534782409668,0.01358198281377554,0.001448722556233406,0.38583773374557495,-0.9224607944488525
1784885688889627720,1784885688892603869,-0.05746680125594139,-0.028733400627970695,-0.08300759643316269,0.375291109085083,-1.0690110921859741,9.673172950744629,0.014538944698870182,0.0042056795209646225,0.38738182187080383,-0.9217905402183533
1784885688939625070,1784885688947594295,-0.041503798216581345,0.0,-0.0776866003870964,-0.3357867896556854,-0.6368576288223267,9.729436874389648,0.014719545841217041,0.0034951649140566587,0.38954901695251465,-0.9208767414093018
1784885688989551336,1784885688992035274,0.022348200902342796,0.035118598490953445,-0.07555820047855377,0.5662286877632141,0.6200982332229614,10.138845443725586,0.015989894047379494,0.005219935905188322,0.39115846157073975,-0.9201648831367493
1784885689039565207,1784885689050786360,0.015962999314069748,0.022348200902342796,-0.08513599634170532,0.8283937573432922,0.181959331035614,9.787496566772461,0.016927553340792656,0.005420480389147997,0.39358237385749817,-0.9191128611564636
1784885689089512348,1784885689092997113,0.008513599634170532,-0.08087919652462006,-0.09897059947252274,-0.15502455830574036,-0.1885433793067932,6.91265869140625,0.015228182077407837,0.002916025696322322,0.39514628052711487,-0.9184825420379639
1784885689139547625,1784885689143536488,0.012770400382578373,0.0776866003870964,-0.09152120351791382,0.1843535304069519,-0.2106897532939911,13.496114730834961,0.01533407624810934,0.005661136005073786,0.39686551690101624,-0.917726457118988
1784885689189601899,1784885689195562233,0.03299019858241081,0.06917300075292587,-0.09897059947252274,-0.44173020124435425,-0.7314286231994629,11.483189582824707,0.016898592934012413,0.004900658968836069,0.39946693181991577,-0.9165741801261902
1784885689239545282,1784885689243531089,-0.03405439853668213,-0.02447660081088543,-0.08513599634170532,1.3329718112945557,-0.2759317457675934,9.68274974822998,0.016444314271211624,0.006144206039607525,0.40110713243484497,-0.915858268737793
1784885689289521789,1784885689298582033,-0.03618279844522476,-0.007449400145560503,-0.09152120351791382,0.7092822194099426,0.08319851011037827,9.522936820983887,0.014213929884135723,0.006570565514266491,0.40392178297042847,-0.9146547913551331
1784885689339595505,1784885689342964545,0.07555820047855377,0.011706200428307056,-0.103227399289608,0.25079262256622314,0.5339069962501526,9.232640266418457,0.014325637370347977,0.005351826082915068,0.40594416856765747,-0.9137651324272156
1784885689389517020,1784885689402498969,0.06810879707336426,0.0,-0.103227399289608,0.4058171808719635,-0.16759411990642548,7.976282596588135,0.01584428735077381,0.005599890369921923,0.4088303744792938,-0.912450909614563
1784885689439575960,1784885689443950974,-0.017027199268341064,-0.05533840134739876,-0.11919040232896805,0.27892449498176575,-1.3617022037506104,11.185111999511719,0.015919851139187813,0.004905652720481157,0.4107398986816406,-0.9115956425666809
1784885689489564318,1784885689492463385,-0.012770400382578373,0.06598039716482162,-0.10216320306062698,0.2579752206802368,0.6631938815116882,11.004947662353516,0.015118992887437344,0.006108783185482025,0.41296595335006714,-0.9105956554412842
1784885689539557656,1784885689548086825,0.014898800291121006,0.08194340020418167,-0.046824801713228226,0.3687070608139038,0.517746090888977,10.22383975982666,0.015317341312766075,0.006455365568399429,0.4147486388683319,-0.90977942943573
1784885689589849324,1784885689593562447,0.026605000719428062,-0.04576060175895691,-0.04256799817085266,0.7463923692703247,-0.49619829654693604,8.85435676574707,0.016757385805249214,0.0054979086853563786,0.4155305325984955,-0.9094035625457764
1784885689639539759,1784885689650659592,0.023412400856614113,-0.059595201164484024,-0.023412400856614113,0.5997475385665894,-0.477643221616745,8.198943138122559,0.016118651255965233,0.004871193785220385,0.41668981313705444,-0.908888041973114
1784885689689436204,1784885689693506518,-0.017027199268341064,0.029797600582242012,-0.017027199268341064,-0.9780313968658447,-0.6805518269538879,13.14117431640625,0.015085231512784958,0.004412437789142132,0.4171505868434906,-0.9086966514587402
1784885689739498847,1784885689743120760,0.019155599176883698,0.03086180053651333,-0.004256799817085266,1.202487826347351,-0.25318682193756104,8.60236644744873,0.015847008675336838,0.005896260961890221,0.41734859347343445,-0.908584475517273
1784885689789490575,1784885689795713595,0.008513599634170532,0.01809139922261238,-0.010641999542713165,1.411980390548706,-0.5045779943466187,9.676165580749512,0.015541358850896358,0.00605512410402298,0.41762685775756836,-0.9084608554840088
1784885689839562810,1784885689841844665,-0.0063852001912891865,-0.08832859992980957,0.0,-0.4944026470184326,-0.25079262256622314,6.933608055114746,0.013959027826786041,0.004043220542371273,0.4176732897758484,-0.9084763526916504
1784885689889600679,1784885689899753385,-0.012770400382578373,-0.07342980057001114,0.005320999771356583,-0.7799112200737,-0.5398924946784973,8.491634368896484,0.013235793448984623,0.003936447203159332,0.41740813851356506,-0.9086094498634338
1784885689939538784,1784885689943987380,-0.005320999771356583,0.07875079661607742,0.02447660081088543,0.6901286244392395,0.4854243993759155,10.770915031433105,0.01457962952554226,0.007348200306296349,0.4170379042625427,-0.9087376594543457
1784885689989969692,1784885690002625982,0.0,0.06917300075292587,0.022348200902342796,0.7906851172447205,0.43754035234451294,10.565611839294434,0.015526496805250645,0.0091649629175663,0.41655173897743225,-0.9089284539222717
1784885690039420813,1784885690044932598,0.025540800765156746,-0.053210001438856125,0.014898800291121006,1.5101426839828491,-0.26815059781074524,9.32541561126709,0.01646478846669197,0.008504396304488182,0.41624006628990173,-0.9090611934661865
1784885690089447524,1784885690092641477,-0.0063852001912891865,-0.01383460033684969,0.0063852001912891865,-1.1581950187683105,-0.5626373887062073,12.392986297607422,0.015380056574940681,0.008469812572002411,0.41609445214271545,-0.9091470837593079
1784885690139511044,1784885690147591127,-0.022348200902342796,0.01383460033684969,0.004256799817085266,-0.3489548861980438,-0.4728548228740692,12.413336753845215,0.015690501779317856,0.01000403892248869,0.41603609919548035,-0.9091529250144958
1784885690189718471,1784885690191644190,0.019155599176883698,0.025540800765156746,0.007449400145560503,1.0342950820922852,-0.0802057534456253,9.205106735229492,0.017471276223659515,0.011075030080974102,0.41598212718963623,-0.9091328382492065
1784885690239430169,1784885690252684527,0.02128399908542633,0.02128399908542633,0.007449400145560503,0.8678981065750122,0.12509703636169434,10.047865867614746,0.017271537333726883,0.010965419933199883,0.4158373475074768,-0.9092041254043579
1784885690289376854,1784885690292743320,-0.0063852001912891865,-0.0776866003870964,-0.004256799817085266,-0.3423708379268646,-0.3669114112854004,7.338826656341553,0.015732644125819206,0.008401257917284966,0.4157591164112091,-0.9092950820922852
1784885690339413897,1784885690341579323,-0.025540800765156746,0.06704460084438324,0.0,-0.395043283700943,0.535702645778656,11.286865234375,0.014791582711040974,0.010919949971139431,0.4157668352127075,-0.9092805981636047
1784885690389369395,1784885690397100358,-0.014898800291121006,0.07662239670753479,0.0,-0.3124433159828186,0.8822633028030396,11.432312965393066,0.014092212542891502,0.011160100810229778,0.4157543480396271,-0.9092945456504822
1784885690439478835,1784885690442786013,0.02447660081088543,-0.023412400856614113,-0.005320999771356583,1.1569979190826416,-0.1867477297782898,8.719083786010742,0.01602461375296116,0.011044646613299847,0.4158422350883484,-0.9092237949371338
1784885690489316923,1784885690499607593,0.028733400627970695,-0.03405439853668213,-0.004256799817085266,1.028908133506775,-0.3471592366695404,8.842984199523926,0.015287071466445923,0.009638411924242973,0.41596442461013794,-0.9091965556144714
1784885690539412717,1784885690541989921,0.0,-0.02447660081088543,-0.011706200428307056,-1.1563993692398071,-0.7236474752426147,11.816582679748535,0.013634501956403255,0.009140584617853165,0.41607967019081116,-0.9091752767562866
1784885690589354791,1784885690591800717,0.022348200902342796,0.07342980057001114,-0.008513599634170532,0.6266822814941406,-0.06344634294509888,9.03751277923584,0.01524020079523325,0.011203913949429989,0.4163398742675781,-0.9090075492858887
1784885690639501838,1784885690644828407,0.023412400856614113,0.04043959826231003,-0.02128399908542633,0.9738415479660034,0.20350714027881622,9.446921348571777,0.015773626044392586,0.010305695235729218,0.4169432818889618,-0.9087324738502502
1784885690689332094,1784885690692497902,-0.008513599634170532,-0.07662239670753479,-0.026605000719428062,-0.1107318252325058,-0.49140989780426025,6.497264862060547,0.014528295025229454,0.007286218460649252,0.41728031635284424,-0.9086276888847351
1784885690739373728,1784885690747739031,-0.009577799588441849,-0.0713014006614685,-0.01383460033684969,-0.2256534993648529,-0.18555063009262085,7.798513412475586,0.013445167802274227,0.0064747873693704605,0.4176592230796814,-0.9084763526916504
1784885690789723969,1784885690791719845,-0.02128399908542633,0.07662239670753479,0.007449400145560503,0.31603461503982544,0.14844051003456116,12.492944717407227,0.013158458285033703,0.009318087249994278,0.4176660478115082,-0.9084527492523193
1784885690839439222,1784885690851572122,-0.017027199268341064,0.10748419910669327,0.019155599176883698,0.0011971008498221636,0.4183867275714874,11.065999984741211,0.013511507771909237,0.010166998952627182,0.4174990952014923,-0.9085153341293335
1784885690889306899,1784885690892584878,0.009577799588441849,-0.038311198353767395,0.015962999314069748,1.357512354850769,-0.3471592366695404,9.967061042785645,0.015260210260748863,0.009413114748895168,0.4172345697879791,-0.9086171984672546
1784885690939383732,1784885690941775554,-0.02128399908542633,0.0,0.012770400382578373,-1.2497732639312744,-0.6111199855804443,9.891045570373535,0.01444812212139368,0.007990206591784954,0.4166967570781708,-0.9088909029960632
1784885690989289145,1784885690996600981,-0.017027199268341064,0.017027199268341064,0.026605000719428062,-1.0031704902648926,-0.4381389021873474,12.131420135498047,0.014555704779922962,0.007281292695552111,0.41612502932548523,-0.9091570377349854
1784885691039282050,1784885691042894354,0.019155599176883698,0.03086180053651333,0.03937539830803871,0.8313865065574646,-0.21308395266532898,9.081207275390625,0.016242407262325287,0.008767887018620968,0.4157535135746002,-0.9092853665351868
1784885691089290844,1784885691099650469,0.023412400856614113,0.020219799131155014,0.026605000719428062,0.7344213724136353,-0.019153613597154617,8.934561729431152,0.01620730198919773,0.008748257532715797,0.4151609539985657,-0.9095568060874939
1784885691139394069,1784885691141989771,0.011706200428307056,-0.08832859992980957,0.004256799817085266,-0.26396071910858154,-0.8553285598754883,6.9240312576293945,0.015289366245269775,0.006556501612067223,0.4146892726421356,-0.9098062515258789
1784885691189602817,1784885691191632577,-0.029797600582242012,0.06810879707336426,0.015962999314069748,-0.3106476664543152,-0.012569558806717396,11.780669212341309,0.01388627290725708,0.00897925067692995,0.4145472049713135,-0.9098727107048035
1784885691239328668,1784885691244915202,-0.035118598490953445,0.05853100121021271,0.020219799131155014,-0.19033902883529663,0.6374561786651611,11.719018936157227,0.013591829687356949,0.010045104660093784,0.4142555892467499,-0.9099989533424377
1784885691289259268,1784885691291663811,0.04043959826231003,-0.020219799131155014,0.01809139922261238,1.0690110921859741,-0.22445639967918396,10.177152633666992,0.01565546728670597,0.01018457394093275,0.41420790553092957,-0.9099860191345215
1784885691339293966,1784885691348705683,0.03405439853668213,-0.031925998628139496,0.011706200428307056,0.9911994934082031,-0.24899697303771973,9.937732696533203,0.01547173224389553,0.01059242244809866,0.4139367938041687,-0.9101078510284424
1784885691389310555,1784885691392546280,-0.017027199268341064,-0.04895320162177086,0.0,-0.6087257862091064,-0.9379284977912903,10.398616790771484,0.01318697351962328,0.008757793344557285,0.41373544931411743,-0.9102547764778137
1784885691439245729,1784885691451881691,-0.008513599634170532,-0.01383460033684969,0.0,-1.1893197298049927,-1.1103110313415527,10.85291576385498,0.012869274243712425,0.009433000348508358,0.4137088358402252,-0.9102646112442017
1784885691489560758,1784885691493677623,0.017027199268341064,0.06810879707336426,0.004256799817085266,0.9139865040779114,0.18136078119277954,10.396821022033691,0.014534411951899529,0.011969645507633686,0.41370514035224915,-0.910211443901062
1784885691539234524,1784885691541691892,0.0063852001912891865,-0.06810879707336426,-0.012770400382578373,0.6254851818084717,-0.2579752206802368,7.979874134063721,0.015122879296541214,0.010054748505353928,0.4138009250164032,-0.9101815223693848
1784885691589271758,1784885691596547377,0.009577799588441849,-0.07236559689044952,-0.023412400856614113,0.26575639843940735,-0.4513069987297058,7.301716327667236,0.014805704355239868,0.009265673346817493,0.41402336955070496,-0.9100940227508545
1784885691639275682,1784885691643025652,-0.03937539830803871,0.05746680125594139,-0.009577799588441849,-0.38786065578460693,0.12868833541870117,13.056180000305176,0.01281775999814272,0.01027242187410593,0.4142845571041107,-0.90999436378479
1784885691689150975,1784885691700677385,-0.028733400627970695,0.09577800333499908,-0.01809139922261238,-0.39624038338661194,0.11611878126859665,13.33690071105957,0.013105813413858414,0.01045708917081356,0.4149892032146454,-0.9096670150756836
1784885691739181081,1784885691742345779,0.005320999771356583,0.0,-0.023412400856614113,1.8698714971542358,-0.34416648745536804,10.265738487243652,0.014115511439740658,0.010672233067452908,0.41546958684921265,-0.9094302654266357
1784885691789152916,1784885691792518328,-0.014898800291121006,-0.06917300075292587,-0.017027199268341064,-1.202487826347351,-0.4842272996902466,8.610147476196289,0.012730469927191734,0.009039320982992649,0.4157608151435852,-0.9093351364135742
1784885691839169820,1784885691845705744,-0.01383460033684969,-0.06172360107302666,-0.004256799817085266,-1.6065093278884888,-0.7398083209991455,9.691728591918945,0.013267052359879017,0.009638491086661816,0.41593697667121887,-0.90924072265625
1784885691889130157,1784885691890634434,0.0,0.09897059947252274,0.0,0.6973112225532532,-0.08379705995321274,9.261370658874512,0.01567677967250347,0.012197446078062057,0.41603440046310425,-0.9091272950172424
1784885691939141969,1784885691948663375,0.005320999771356583,0.053210001438856125,0.015962999314069748,0.6931213736534119,-0.13407529890537262,9.48462963104248,0.016236115247011185,0.01152295246720314,0.4158036708831787,-0.9092317819595337
1784885691989153077,1784885691992713203,0.010641999542713165,-0.06278780102729797,0.004256799817085266,0.4411316514015198,-0.48063597083091736,8.194753646850586,0.016166791319847107,0.008679870516061783,0.4155321717262268,-0.9093886017799377
1784885692039171633,1784885692051602996,0.0,-0.08620020002126694,0.008513599634170532,0.2190694510936737,-0.5243301391601562,7.224503517150879,0.016543952748179436,0.007768505718559027,0.41541269421577454,-0.9094447493553162
1784885692089211188,1784885692093562355,-0.022348200902342796,0.04256799817085266,0.019155599176883698,-0.569819986820221,-0.0694318488240242,13.312359809875488,0.015757350251078606,0.008914079517126083,0.4152505397796631,-0.9095221757888794
1784885692139176272,1784885692141788064,0.009577799588441849,0.009577799588441849,0.008513599634170532,1.7166426181793213,-0.284311443567276,10.0951509475708,0.017263127490878105,0.009568804875016212,0.4149320721626282,-0.9096336364746094
1784885692189115377,1784885692196529775,0.02447660081088543,-0.01809139922261238,0.004256799817085266,1.313219666481018,-0.20231004059314728,10.15141487121582,0.016511769965291023,0.009676028043031693,0.4149349331855774,-0.9096450805664062
1784885692239145045,1784885692240802097,-0.010641999542713165,-0.06598039716482162,-0.004256799817085266,-0.8409633040428162,-0.8505401611328125,8.575431823730469,0.014889845624566078,0.008232269436120987,0.41497522592544556,-0.9096688628196716
1784885692289136143,1784885692300563883,-0.017027199268341064,-0.03937539830803871,-0.005320999771356583,-0.6590040326118469,-0.8080430626869202,10.195707321166992,0.01447643805295229,0.009377083741128445,0.41509559750556946,-0.9096095561981201
1784885692339208712,1784885692342112391,0.0,0.0713014006614685,-0.007449400145560503,0.4124012291431427,0.3926490843296051,9.674370765686035,0.015730317682027817,0.011257221922278404,0.4151107370853424,-0.90956050157547
1784885692389905159,1784885692393479728,0.035118598490953445,-0.05108160153031349,-0.0063852001912891865,0.7062894701957703,-0.2867056429386139,8.81784439086914,0.015374585054814816,0.009044087491929531,0.4152155816555023,-0.909543514251709
1784885692439139416,1784885692445970542,0.026605000719428062,-0.053210001438856125,0.0,0.013168109580874443,-0.47884032130241394,7.5968017578125,0.015093634836375713,0.008045717142522335,0.4153769910335541,-0.9094838500022888
1784885692489072560,1784885692491528596,-0.022348200902342796,0.01809139922261238,-0.004256799817085266,-1.2407950162887573,-0.0933738648891449,12.485761642456055,0.013209096156060696,0.008559414185583591,0.41556820273399353,-0.9094211459159851
1784885692539064621,1784885692548784945,-0.05108160153031349,0.02766920067369938,-0.01809139922261238,-0.011971008032560349,0.013168109580874443,12.817956924438477,0.01319453027099371,0.007985987700521946,0.4162152111530304,-0.9091305732727051
1784885692589057349,1784885692592766844,0.022348200902342796,0.009577799588441849,-0.020219799131155014,0.871489405632019,-0.05985504016280174,9.078812599182129,0.01584450714290142,0.008592706173658371,0.4165557026863098,-0.9089267253875732
1784885692639069167,1784885692640701130,-0.010641999542713165,-0.05427420139312744,-0.022348200902342796,-0.29448679089546204,-0.690727174282074,8.49402904510498,0.014473806135356426,0.006469397339969873,0.4169190227985382,-0.9088006615638733
1784885692689419902,1784885692693677803,-0.008513599634170532,-0.07023719698190689,-0.026605000719428062,-0.7128735184669495,-0.5105634927749634,8.863933563232422,0.013899192214012146,0.0066918195225298405,0.41750431060791016,-0.9085391759872437
1784885692739088970,1784885692742265389,-0.01383460033684969,0.08620020002126694,-0.02128399908542633,0.16998831927776337,0.2537853717803955,10.37108325958252,0.013188882730901241,0.009273518808186054,0.4179832637310028,-0.908306896686554
1784885692789046277,1784885692797589521,0.012770400382578373,0.07449399679899216,-0.015962999314069748,0.14185644686222076,0.008379706181585789,8.971073150634766,0.013806764967739582,0.009927701205015182,0.4186028838157654,-0.90800541639328
1784885692839099589,1784885692841356115,0.010641999542713165,-0.04788900166749954,-0.017027199268341064,1.212663173675537,-0.4926069974899292,9.68813705444336,0.014617475681006908,0.008272556588053703,0.4188626706600189,-0.9078896045684814
1784885692889060044,1784885692900602361,0.011706200428307056,-0.06172360107302666,-0.004256799817085266,0.6871358752250671,-0.44412440061569214,8.007407188415527,0.015172649174928665,0.007321611512452364,0.41893938183784485,-0.9078531861305237
1784885692939114393,1784885692942999401,-0.012770400382578373,0.02447660081088543,0.012770400382578373,-0.7230489253997803,-0.14903905987739563,13.779828071594238,0.014091194607317448,0.007186590693891048,0.41881486773490906,-0.9079290628433228
1784885692989033113,1784885692992568002,0.014898800291121006,0.03405439853668213,0.017027199268341064,0.8607155084609985,-0.1975216418504715,9.145252227783203,0.015622791834175587,0.007819072343409061,0.4186384379863739,-0.9079802632331848
1784885693039015272,1784885693046490977,0.005320999771356583,0.022348200902342796,0.011706200428307056,1.035492181777954,-0.24660277366638184,9.925163269042969,0.01516251266002655,0.006576529238373041,0.4182831943035126,-0.9081616401672363
1784885693089321167,1784885693091724211,-0.007449400145560503,-0.06065940111875534,0.011706200428307056,-0.5919663310050964,-0.2687491476535797,7.885901927947998,0.012965989299118519,0.004576636012643576,0.4180089235305786,-0.9083341956138611
1784885693139036920,1784885693148619709,-0.011706200428307056,-0.05746680125594139,0.017027199268341064,-0.9768342971801758,-0.7631517648696899,8.920196533203125,0.012916513718664646,0.005360916256904602,0.4176415801048279,-0.908499538898468
1784885693189052670,1784885693192487888,-0.0063852001912891865,0.08087919652462006,0.012770400382578373,0.4950011968612671,0.606930136680603,10.660781860351562,0.011660601943731308,0.008298474363982677,0.41738981008529663,-0.9086101651191711
1784885693239031146,1784885693240851306,0.03086180053651333,-0.046824801713228226,0.007449400145560503,1.2443863153457642,-0.34416648745536804,9.147645950317383,0.013601724058389664,0.007792363408952951,0.4172917604446411,-0.9086326956748962
1784885693288968832,1784885693293847835,0.029797600582242012,-0.05427420139312744,0.0063852001912891865,1.2300211191177368,-0.3016694188117981,8.910619735717773,0.01411646232008934,0.007314923219382763,0.41718313097953796,-0.9086787104606628
1784885693339033371,1784885693343067526,-0.011706200428307056,0.014898800291121006,0.0,-1.2713210582733154,-0.912190854549408,12.020089149475098,0.013130771927535534,0.006771882530301809,0.41711312532424927,-0.9087297320365906
1784885693388959577,1784885693397650321,-0.02128399908542633,0.01383460033684969,0.008513599634170532,-0.4866214990615845,-0.36750996112823486,12.270283699035645,0.013638477772474289,0.007331252098083496,0.41706582903862,-0.9087397456169128
1784885693438991898,1784885693442305836,0.01809139922261238,0.02447660081088543,0.009577799588441849,0.8200140595436096,0.016759412363171577,8.740033149719238,0.015317912213504314,0.008177782408893108,0.41700950264930725,-0.9087315201759338
1784885693489003519,1784885693502492424,0.014898800291121006,0.020219799131155014,0.007449400145560503,1.1617863178253174,0.09935937076807022,9.869498252868652,0.015827303752303123,0.008176657371222973,0.416905015707016,-0.908770740032196
1784885693539021934,1784885693543244786,-0.014898800291121006,-0.0713014006614685,-0.008513599634170532,-0.2472013235092163,-0.9085995554924011,8.328230857849121,0.014901362359523773,0.0059605552814900875,0.4168853759765625,-0.9088125824928284
1784885693589519526,1784885693592751327,-0.031925998628139496,0.0713014006614685,0.0,-0.04668693244457245,0.49799394607543945,11.622053146362305,0.013443139381706715,0.008039061911404133,0.4169362187385559,-0.9087960124015808
1784885693638993071,1784885693645676902,-0.022348200902342796,0.07555820047855377,0.0,0.1412578970193863,0.47644612193107605,11.149797439575195,0.013366925530135632,0.00846736878156662,0.4172030985355377,-0.9086707830429077
1784885693689190018,1784885693691698899,0.02447660081088543,-0.04043959826231003,-0.01809139922261238,1.3413515090942383,-0.21128830313682556,9.159018516540527,0.014973374083638191,0.00824806746095419,0.41747957468032837,-0.9085208773612976
1784885693738967503,1784885693748965735,0.014898800291121006,-0.04895320162177086,-0.02447660081088543,0.9247604012489319,-0.5297170877456665,8.879495620727539,0.01507740467786789,0.007915433496236801,0.4178631007671356,-0.9083456993103027
1784885693788895376,1784885693790986906,-0.010641999542713165,0.0,-0.01383460033684969,-1.2300211191177368,-0.6590040326118469,12.424111366271973,0.013927974738180637,0.006880400702357292,0.41816824674606323,-0.9082320332527161
1784885693838899664,1784885693840688531,0.012770400382578373,0.05746680125594139,-0.009577799588441849,0.9475052952766418,-0.031124621629714966,9.25418758392334,0.01532827503979206,0.008618298918008804,0.41850677132606506,-0.9080387353897095
1784885693888888398,1784885693893641325,0.010641999542713165,0.04043959826231003,0.0,0.8894459009170532,-0.19213467836380005,8.825027465820312,0.016210563480854034,0.007201359141618013,0.4185720980167389,-0.9080055952072144
1784885693938902259,1784885693942598756,0.0,-0.07449399679899216,0.0,0.06883329898118973,-0.5380968451499939,6.754641532897949,0.015025943517684937,0.004338088911026716,0.41857245564460754,-0.9080439805984497
1784885693988878902,1784885693997680520,0.0,-0.06598039716482162,0.008513599634170532,-0.8271966576576233,-0.49559974670410156,6.497863292694092,0.013808916322886944,0.004584795795381069,0.41830724477767944,-0.9081843495368958
1784885694038967516,1784885694043468034,-0.026605000719428062,0.07981500029563904,0.026605000719428062,0.21368250250816345,0.5410895943641663,11.939285278320312,0.013352317735552788,0.007617027964442968,0.4179556667804718,-0.9083325266838074
1784885694088885378,1784885694100635632,-0.007449400145560503,0.07875079661607742,0.029797600582242012,0.5404910445213318,0.4638765752315521,10.335169792175293,0.014283718541264534,0.008812529034912586,0.41745492815971375,-0.9085378646850586
1784885694138933462,1784885694142917698,0.020219799131155014,-0.04043959826231003,0.01383460033684969,0.8361749053001404,-0.21847090125083923,9.498994827270508,0.015091284178197384,0.007111584302037954,0.41708144545555115,-0.908711314201355
1784885694188975324,1784885694190624045,-0.028733400627970695,0.0,0.01809139922261238,-0.9241618514060974,-0.5847837328910828,10.863690376281738,0.013690776191651821,0.006649818271398544,0.4166029095649719,-0.9089563488960266
1784885694238869577,1784885694246049731,-0.028733400627970695,0.031925998628139496,0.014898800291121006,-1.035492181777954,-0.284311443567276,11.883021354675293,0.013494539074599743,0.0064816465601325035,0.4161636233329773,-0.9091616868972778
1784885694288987078,1784885694291625016,0.03086180053651333,0.02447660081088543,0.02447660081088543,0.8774749040603638,-0.07422025501728058,9.340378761291504,0.014848061837255955,0.007643834222108126,0.41595861315727234,-0.9092255234718323
1784885694338942212,1784885694350802081,0.03618279844522476,0.017027199268341064,0.020219799131155014,0.882861852645874,-0.24241292476654053,9.298480987548828,0.014820698648691177,0.008214175701141357,0.4156920909881592,-0.909342885017395
1784885694388823522,1784885694390555842,0.015962999314069748,-0.07449399679899216,0.0,-0.3597288131713867,-0.8170213103294373,6.807313919067383,0.013691830448806286,0.00557837076485157,0.4153687357902527,-0.9095283150672913
1784885694438879291,1784885694442483430,-0.03937539830803871,0.06065940111875534,0.02447660081088543,-0.4147954285144806,0.3561374843120575,12.157157897949219,0.012491652742028236,0.007887405343353748,0.4150528311729431,-0.9096726775169373
1784885694491696646,1784885694494694220,-0.03937539830803871,0.06172360107302666,0.023412400856614113,-0.055665187537670135,0.8577227592468262,11.458050727844238,0.012652168050408363,0.008786763995885849,0.41480398178100586,-0.9097757339477539
1784885694538842014,1784885694540728961,0.03618279844522476,-0.03086180053651333,0.015962999314069748,0.9307458996772766,-0.43754035234451294,9.414000511169434,0.015179435722529888,0.008794848807156086,0.4147987365722656,-0.9097393751144409
1784885694588803462,1784885694598596038,0.02766920067369938,-0.04043959826231003,-0.004256799817085266,1.0869675874710083,-0.3776853084564209,9.06983470916748,0.015028894878923893,0.007127987686544657,0.414754718542099,-0.909776508808136
1784885694638890244,1784885694642012672,-0.038311198353767395,0.008513599634170532,-0.007449400145560503,-0.8445546627044678,-0.7912836670875549,10.94808578491211,0.013377069495618343,0.005994234699755907,0.41460227966308594,-0.9098799228668213
1784885694688824381,1784885694701742476,-0.04576060175895691,0.04043959826231003,-0.008513599634170532,-0.7541735172271729,-0.4183867275714874,11.367071151733398,0.013066040351986885,0.005450226832181215,0.41470572352409363,-0.9098406434059143
1784885694738871687,1784885694742946892,0.02447660081088543,0.02766920067369938,-0.004256799817085266,0.7595604658126831,0.19572599232196808,8.82442855834961,0.014383208937942982,0.006427827291190624,0.4150541126728058,-0.9096556305885315
1784885694788760478,1784885694791565652,0.01383460033684969,-0.05853100121021271,-0.03405439853668213,-0.2495955228805542,-0.751779317855835,7.681796073913574,0.013641993515193462,0.0036780915688723326,0.41531503200531006,-0.9095631837844849
1784885694838841632,1784885694846063705,0.0,-0.06385199725627899,-0.028733400627970695,-0.6494271755218506,-0.8391676545143127,7.261014938354492,0.012906885705888271,0.0036475248634815216,0.415686696767807,-0.9094043374061584
1784885694890252179,1784885694891767158,-0.029797600582242012,0.07342980057001114,0.012770400382578373,-0.020350713282823563,0.2885012924671173,13.026851654052734,0.01180983055382967,0.006089915055781603,0.41581347584724426,-0.9093481302261353
1784885694938749789,1784885694949680932,-0.025540800765156746,0.08087919652462006,0.010641999542713165,0.193331778049469,0.30885201692581177,12.117652893066406,0.011338331736624241,0.007341006770730019,0.4159008860588074,-0.9093049168586731
1784885694988994439,1784885694990703799,0.02128399908542633,-0.017027199268341064,0.0063852001912891865,1.2497732639312744,-0.06703764945268631,10.803834915161133,0.012524494901299477,0.007681607734411955,0.41592562198638916,-0.9092752933502197
1784885695038728439,1784885695042878561,-0.026605000719428062,-0.050017401576042175,0.004256799817085266,-1.2826935052871704,-0.5811924338340759,9.12849235534668,0.01087699830532074,0.006353867240250111,0.41574037075042725,-0.9093914031982422
1784885695088695559,1784885695095577605,-0.017027199268341064,-0.010641999542713165,0.015962999314069748,-1.136048674583435,-0.7787140607833862,10.057442665100098,0.011325622908771038,0.006773537490516901,0.4152970016002655,-0.9095854759216309
1784885695138814416,1784885695141612610,0.012770400382578373,0.05746680125594139,0.02447660081088543,0.5339069962501526,-0.030526071786880493,9.047688484191895,0.013211377896368504,0.008691948838531971,0.41491538286209106,-0.9097177982330322
1784885695188954271,1784885695197553696,0.020219799131155014,0.041503798216581345,0.025540800765156746,0.578798234462738,-0.0071826050989329815,8.456319808959961,0.012620242312550545,0.00843876600265503,0.414314866065979,-0.9100022315979004
1784885695238768523,1784885695242228090,0.02128399908542633,-0.08087919652462006,0.007449400145560503,0.047884032130241394,-0.4082113802433014,7.933785915374756,0.012539074756205082,0.005284170154482126,0.4139777719974518,-0.9101805090904236
1784885695288977942,1784885695301645055,0.017027199268341064,-0.08620020002126694,0.0,-0.30047231912612915,-0.667982280254364,6.809708118438721,0.011919258162379265,0.004628219176083803,0.4136839210987091,-0.9103260636329651
1784885695338720740,1784885695342993900,-0.028733400627970695,0.04576060175895691,0.01809139922261238,-0.5919663310050964,-0.058059390634298325,12.83830738067627,0.01105870958417654,0.006471875589340925,0.4134257435798645,-0.9104428887367249
1784885695388696025,1784885695390507149,0.028733400627970695,-0.019155599176883698,0.009577799588441849,1.293467402458191,-0.23942016065120697,10.33098030090332,0.012591971084475517,0.007504072971642017,0.4133075475692749,-0.9104688763618469
1784885695438726025,1784885695445937119,0.015962999314069748,-0.03405439853668213,0.01383460033684969,1.1641805171966553,-0.32261866331100464,10.198101997375488,0.012796572409570217,0.008084181696176529,0.41321420669555664,-0.9105033874511719
1784885695488658611,1784885695491533906,-0.014898800291121006,-0.06598039716482162,0.0,-0.945111095905304,-0.9301473498344421,8.98543930053711,0.011319059878587723,0.006582948844879866,0.4130892753601074,-0.9105916619300842
1784885695538696795,1784885695549741739,-0.010641999542713165,-0.01809139922261238,0.0,-0.67815762758255,-1.1103110313415527,10.302249908447266,0.011706873774528503,0.007439481094479561,0.4129977524280548,-0.9106218218803406
1784885695588635400,1784885695591442907,0.014898800291121006,0.0649162009358406,0.0063852001912891865,0.35494038462638855,0.15562310814857483,10.108918190002441,0.012409050017595291,0.009019565768539906,0.41292616724967957,-0.9106305241584778
1784885695638720262,1784885695642899935,0.020219799131155014,-0.05746680125594139,-0.008513599634170532,0.6685808300971985,-0.43933600187301636,8.520364761352539,0.0131272217258811,0.00668345158919692,0.4128614068031311,-0.9106699824333191
1784885695689344829,1784885695694591487,0.0063852001912891865,-0.05533840134739876,-0.011706200428307056,0.42676645517349243,-0.5003881454467773,7.954734802246094,0.012707965448498726,0.006336274556815624,0.4129052460193634,-0.9106585383415222
1784885695738697347,1784885695740910583,-0.038311198353767395,0.025540800765156746,0.0,-0.48961424827575684,-0.20769698917865753,13.027449607849121,0.010971542447805405,0.007778358180075884,0.4130323827266693,-0.9106122255325317
1784885695788620194,1784885695797642283,-0.02766920067369938,0.06704460084438324,-0.01383460033684969,-0.45908817648887634,0.008379706181585789,12.649166107177734,0.01072384137660265,0.007381499279290438,0.41343531012535095,-0.9104356169700623
1784885695838699724,1784885695841990148,0.012770400382578373,0.014898800291121006,-0.022348200902342796,1.2563573122024536,-0.17717091739177704,10.400411605834961,0.012067182920873165,0.00778616638854146,0.41390281915664673,-0.9102031588554382
1784885695888639366,1784885695900671213,0.020219799131155014,-0.020219799131155014,-0.015962999314069748,1.5263035297393799,0.041299980133771896,9.591172218322754,0.011395695619285107,0.008211128413677216,0.414354145526886,-0.9100027084350586
1784885695938710267,1784885695942930731,-0.004256799817085266,-0.06810879707336426,-0.009577799588441849,-1.062427043914795,-0.4554968774318695,9.034520149230957,0.009537129662930965,0.0064846002496778965,0.4145547151565552,-0.9099466800689697
1784885695988760931,1784885695990646286,0.004256799817085266,0.0713014006614685,0.0,0.18614917993545532,0.10594342648983002,10.159195899963379,0.010964268818497658,0.00933163519948721,0.41462740302085876,-0.9098725318908691
1784885696038648046,1784885696045745508,0.0,0.07023719698190689,0.005320999771356583,0.06643909960985184,-0.04908113554120064,8.504802703857422,0.011442933231592178,0.007640314754098654,0.4144718050956726,-0.9099534749984741
1784885696088709121,1784885696091606875,0.0,-0.07236559689044952,0.012770400382578373,0.5608417391777039,-0.6308721303939819,8.198943138122559,0.012865463271737099,0.004777143709361553,0.4142072796821594,-0.9100744128227234
1784885696138642287,1784885696149629814,0.0,-0.05533840134739876,0.012770400382578373,0.023942016065120697,-0.5805938839912415,7.870937824249268,0.013037927448749542,0.0036714335437864065,0.4136343002319336,-0.9103375673294067
1784885696188562473,1784885696191674533,-0.05214580148458481,0.07662239670753479,0.026605000719428062,-0.060453593730926514,0.01735796220600605,13.111845016479492,0.011677822098135948,0.00527862086892128,0.41322919726371765,-0.9105321764945984
1784885696238597700,1784885696241685799,0.028733400627970695,0.008513599634170532,0.028733400627970695,0.7966706156730652,-0.1388636976480484,10.323797225952148,0.013400864787399769,0.005247700028121471,0.4129139482975006,-0.9106515049934387
1784885696288912722,1784885696294694530,0.035118598490953445,-0.023412400856614113,0.025540800765156746,1.4502876996994019,-0.3561374843120575,10.01075553894043,0.012451926246285439,0.005804566666483879,0.41228920221328735,-0.9109448194503784
1784885696338601014,1784885696341585257,-0.01383460033684969,-0.053210001438856125,0.0,-1.049258828163147,-1.246780514717102,8.382699012756348,0.011574572883546352,0.004497454036027193,0.4119892716407776,-0.9110994935035706
1784885696388545475,1784885696397697048,-0.017027199268341064,-0.03299019858241081,-0.004256799817085266,-0.9648632407188416,-0.6889315247535706,9.443329811096191,0.011071382090449333,0.005928901024162769,0.41176271438598633,-0.9111998081207275
1784885696438612716,1784885696442340932,0.0,0.06704460084438324,0.01383460033684969,0.35015198588371277,0.5153518915176392,10.001178741455078,0.01200163085013628,0.007436512038111687,0.4116872549057007,-0.9112110733985901
1784885696488966696,1784885696500648462,0.012770400382578373,0.04788900166749954,0.017027199268341064,0.6697779297828674,0.2214636504650116,9.512163162231445,0.012607922777533531,0.0069006881676614285,0.4115355908870697,-0.9112755656242371
1784885696538626658,1784885696542905929,0.02128399908542633,-0.05214580148458481,-0.008513599634170532,0.32022446393966675,-0.4644751250743866,8.49642276763916,0.012990839779376984,0.004009011201560497,0.41144952178001404,-0.91132652759552
1784885696588499462,1784885696590571366,-0.05108160153031349,0.046824801713228226,0.01383460033684969,-0.7368155717849731,-0.28969839215278625,11.784858703613281,0.012126048095524311,0.004779411014169455,0.4110530614852905,-0.9115135073661804
1784885696638518932,1784885696645957163,-0.05533840134739876,0.06172360107302666,0.012770400382578373,-0.31124621629714966,0.055665187537670135,12.194866180419922,0.011631185188889503,0.005162352230399847,0.4108657240867615,-0.9116023182868958
1784885696688508535,1784885696691802755,0.04256799817085266,-0.012770400382578373,0.008513599634170532,1.2312182188034058,-0.008379706181585789,9.258378028869629,0.013162143528461456,0.006052645388990641,0.41094547510147095,-0.9115400910377502
1784885696738566907,1784885696750691261,0.046824801713228226,-0.02766920067369938,0.0,1.5747861862182617,-0.19213467836380005,10.039485931396484,0.012958495877683163,0.007297951728105545,0.4108552634716034,-0.9115745425224304
1784885696788486871,1784885696791612447,0.008513599634170532,-0.08620020002126694,-0.004256799817085266,-0.7140706181526184,-0.7960720658302307,7.824849605560303,0.012225620448589325,0.00581127405166626,0.4108066260814667,-0.9116172790527344
1784885696838527097,1784885696841972481,0.0063852001912891865,0.06385199725627899,-0.0063852001912891865,0.15562310814857483,0.04429272934794426,11.00015926361084,0.011679152026772499,0.009373902343213558,0.4110769033432007,-0.9114728569984436
1784885696888539234,1784885696894656848,0.004256799817085266,0.07449399679899216,-0.023412400856614113,0.3345896899700165,0.11552023142576218,10.204087257385254,0.011438028886914253,0.011461266316473484,0.4116326570510864,-0.9112012982368469
1784885696938556945,1784885696940995243,0.01383460033684969,-0.03724699839949608,-0.02447660081088543,1.301248550415039,-0.4884171485900879,9.513958930969238,0.01299763098359108,0.0108483312651515,0.4120325446128845,-0.9110071659088135
1784885696988551214,1784885696997611613,0.02447660081088543,-0.05746680125594139,-0.008513599634170532,1.0271124839782715,-0.2801215946674347,8.82442855834961,0.012710734270513058,0.010141449980437756,0.4124282896518707,-0.9108402132987976
1784885697038456832,1784885697042300458,0.004256799817085266,-0.005320999771356583,-0.007449400145560503,-0.9403226971626282,-0.15562310814857483,13.55896282196045,0.01265794225037098,0.00947008840739727,0.4126735329627991,-0.9107370972633362
1784885697088489638,1784885697090467555,0.0063852001912891865,0.035118598490953445,0.0,1.0887632369995117,-0.2537853717803955,8.993220329284668,0.013316265307366848,0.01080233883112669,0.4127420485019684,-0.9106818437576294
1784885697138550163,1784885697143425779,0.015962999314069748,0.03299019858241081,0.0,1.247977614402771,-0.1107318252325058,9.815030097961426,0.013234010897576809,0.010585407726466656,0.41265344619750977,-0.9107257723808289
1784885697188574396,1784885697191589579,0.008513599634170532,-0.09471379965543747,0.0063852001912891865,-0.20051439106464386,-0.20051439106464386,6.07588529586792,0.01109610591083765,0.007646352052688599,0.412604421377182,-0.9108058214187622
1784885697238492644,1784885697246890079,0.015962999314069748,-0.06810879707336426,0.015962999314069748,-0.46088382601737976,-0.3758896589279175,8.423998832702637,0.011099712923169136,0.005374435801059008,0.41249725222587585,-0.9108706116676331
1784885697288420575,1784885697291687188,-0.004256799817085266,0.0776866003870964,0.0,0.25438392162323,-0.04848258197307587,9.749787330627441,0.010942367836833,0.008433661423623562,0.41239413619041443,-0.9108960032463074
1784885697338445290,1784885697349734796,0.015962999314069748,0.08300759643316269,0.0,0.43514615297317505,0.24600422382354736,9.345766067504883,0.010782696306705475,0.010237800888717175,0.41222596168518066,-0.910955548286438
1784885697388766427,1784885697392385622,0.02447660081088543,-0.041503798216581345,0.0,0.9469067454338074,-0.2998737692832947,8.756194114685059,0.011724482290446758,0.010194783098995686,0.412248820066452,-0.9109340310096741
1784885697438423081,1784885697441845895,0.0,-0.03299019858241081,-0.017027199268341064,-1.3922282457351685,-0.3794809579849243,12.983756065368652,0.010466987267136574,0.009608396328985691,0.41258084774017334,-0.9108054041862488
1784885697488472904,1784885697494620422,-0.019155599176883698,-0.012770400382578373,-0.010641999542713165,-1.3784615993499756,-0.26575639843940735,12.342109680175781,0.010100381448864937,0.009138737805187702,0.4127660095691681,-0.9107304811477661
1784885697538440367,1784885697540833727,0.023412400856614113,0.053210001438856125,-0.010641999542713165,1.1671732664108276,0.09935937076807022,9.659406661987305,0.012297567911446095,0.010852743871510029,0.4128296971321106,-0.9106559157371521
1784885697588372168,1784885697598676271,0.02766920067369938,0.03724699839949608,-0.0063852001912891865,1.0205284357070923,0.15023615956306458,10.017938613891602,0.012818600051105022,0.009996476583182812,0.41310301423072815,-0.9105345010757446
1784885697638519070,1784885697642143375,0.012770400382578373,-0.08087919652462006,-0.011706200428307056,0.27653029561042786,-0.5638344883918762,8.00920295715332,0.01215789932757616,0.007745582144707441,0.4132956266403198,-0.9104780554771423
1784885697688519307,1784885697690646333,-0.03724699839949608,0.05108160153031349,-0.007449400145560503,-0.7523778676986694,0.20470423996448517,11.567584991455078,0.010735359974205494,0.00891915149986744,0.41352784633636475,-0.9103797674179077
1784885697738420168,1784885697742712252,-0.007449400145560503,0.06278780102729797,-0.012770400382578373,0.011971008032560349,0.4141968786716461,10.791265487670898,0.010766181163489819,0.010263574309647083,0.41401752829551697,-0.9101426601409912
1784885697788338434,1784885697791635431,0.025540800765156746,-0.020219799131155014,-0.02128399908542633,1.1971008777618408,-0.21547815203666687,9.351751327514648,0.012516133487224579,0.010405633598566055,0.4143594205379486,-0.909963071346283
1784885697838365834,1784885697848066740,0.009577799588441849,-0.04043959826231003,-0.029797600582242012,0.9612719416618347,-0.3597288131713867,9.372700691223145,0.012791633605957031,0.011367496103048325,0.4149492084980011,-0.9096788167953491
1784885697888331964,1784885697890648409,-0.028733400627970695,-0.02128399908542633,-0.03299019858241081,-0.983418345451355,-0.11671733111143112,12.107478141784668,0.011085417121648788,0.010529442690312862,0.4155363142490387,-0.9094433188438416
1784885697938408486,1784885697949823012,-0.04256799817085266,0.02447660081088543,-0.02447660081088543,-0.8535329103469849,-0.11851298063993454,13.075333595275879,0.012242530472576618,0.010892081074416637,0.41647031903266907,-0.9089968204498291
1784885697988295905,1784885697992086835,0.009577799588441849,0.05533840134739876,-0.03405439853668213,0.8702923059463501,0.14664484560489655,9.820416450500488,0.014033270999789238,0.01169880572706461,0.4169812798500061,-0.908726692199707
1784885698038352045,1784885698041752250,-0.014898800291121006,-0.05853100121021271,-0.022348200902342796,0.18555063009262085,-0.3585317134857178,7.258620738983154,0.012908576987683773,0.008545540273189545,0.41734427213668823,-0.9086118340492249
1784885698088322124,1784885698094667616,0.0,-0.05746680125594139,-0.007449400145560503,-0.2454056739807129,-0.5380968451499939,8.061875343322754,0.012416921555995941,0.00765084195882082,0.41766831278800964,-0.908477783203125
1784885698138382339,1784885698140994226,-0.02447660081088543,0.08513599634170532,-0.004256799817085266,-0.06643909960985184,0.3292027413845062,10.973823547363281,0.0115347383543849,0.009533488191664219,0.41789984703063965,-0.9083650708198547
1784885698188352862,1784885698197583667,-0.022348200902342796,0.09152120351791382,0.0,-0.07541735470294952,0.2388216108083725,10.218452453613281,0.011972793377935886,0.009502767585217953,0.417911559343338,-0.9083544611930847
1784885698238362881,1784885698241845149,0.015962999314069748,0.0,0.014898800291121006,1.1240776777267456,-0.25977087020874023,9.877279281616211,0.013714862987399101,0.007575362920761108,0.41767486929893494,-0.9084567427635193
