t_ns,t_bag_ns,wx,wy,wz,ax,ay,az,qx,qy,qz,qw
1789658577015881395,1789658577029639488,0.012770400382578373,-0.029797600582242012,0.0904569998383522,0.10534487664699554,-0.2795230448246002,9.79408073425293,-0.005559778306633234,0.015237309038639069,-0.9757201075553894,-0.21839988231658936
1789658577021494854,1789658577032044113,0.01383460033684969,-0.031925998628139496,0.08939280360937119,0.11372458189725876,-0.2992752194404602,9.940126419067383,-0.0054688164964318275,0.014145180583000183,-0.97594153881073,-0.21748465299606323
1789658577031921507,1789658577034552049,0.01383460033684969,-0.031925998628139496,0.08939280360937119,0.11372458189725876,-0.2992752194404602,9.940126419067383,-0.0054688164964318275,0.014145180583000183,-0.97594153881073,-0.21748465299606323
1789658577035962844,1789658577038821932,0.01383460033684969,-0.031925998628139496,0.08939280360937119,0.11372458189725876,-0.2992752194404602,9.940126419067383,-0.0054688164964318275,0.014145180583000183,-0.97594153881073,-0.21748465299606323
1789658577040892645,1789658577051819074,0.012770400382578373,-0.03086180053651333,0.0904569998383522,0.09876082092523575,-0.2968810200691223,9.874884605407715,-0.005746007896959782,0.015387672930955887,-0.9761306643486023,-0.2165423482656479
1789658577052085915,1789658577054924708,0.012770400382578373,-0.03086180053651333,0.0904569998383522,0.09876082092523575,-0.2968810200691223,9.874884605407715,-0.005746007896959782,0.015387672930955887,-0.9761306643486023,-0.2165423482656479
1789658577056940238,1789658577059178833,0.012770400382578373,-0.03086180053651333,0.0904569998383522,0.09876082092523575,-0.2968810200691223,9.874884605407715,-0.005746007896959782,0.015387672930955887,-0.9761306643486023,-0.2165423482656479
1789658577061434316,1789658577074032863,0.012770400382578373,-0.03086180053651333,0.08939280360937119,0.0933738648891449,-0.2711433470249176,9.861716270446777,-0.006618986837565899,0.014647465199232101,-0.9763383865356445,-0.2156303972005844
1789658577074291927,1789658577077829265,0.012770400382578373,-0.03086180053651333,0.08939280360937119,0.0933738648891449,-0.2711433470249176,9.861716270446777,-0.006618986837565899,0.014647465199232101,-0.9763383865356445,-0.2156303972005844
1789658577079285540,1789658577083496629,0.012770400382578373,-0.03086180053651333,0.08939280360937119,0.0933738648891449,-0.2711433470249176,9.861716270446777,-0.006618986837565899,0.014647465199232101,-0.9763383865356445,-0.2156303972005844
1789658577083719417,1789658577094047296,0.01383460033684969,-0.03086180053651333,0.0904569998383522,0.1496376097202301,-0.30047231912612915,9.808445930480957,-0.005567348096519709,0.016018038615584373,-0.9765354990959167,-0.21466760337352753
1789658577095408019,1789658577098737996,0.01383460033684969,-0.03086180053651333,0.0904569998383522,0.1496376097202301,-0.30047231912612915,9.808445930480957,-0.005567348096519709,0.016018038615584373,-0.9765354990959167,-0.21466760337352753
1789658577099506557,1789658577102521954,0.01383460033684969,-0.03086180053651333,0.0904569998383522,0.1496376097202301,-0.30047231912612915,9.808445930480957,-0.005567348096519709,0.016018038615584373,-0.9765354990959167,-0.21466760337352753
1789658577103464305,1789658577114778348,0.012770400382578373,-0.03086180053651333,0.08939280360937119,0.15562310814857483,-0.25438392162323,9.808445930480957,-0.005095453932881355,0.01418845821171999,-0.9767686128616333,-0.2137453854084015
1789658577115568002,1789658577120034969,0.012770400382578373,-0.03086180053651333,0.08939280360937119,0.15562310814857483,-0.25438392162323,9.808445930480957,-0.005095453932881355,0.01418845821171999,-0.9767686128616333,-0.2137453854084015
1789658577120779625,1789658577124329833,0.012770400382578373,-0.03086180053651333,0.08939280360937119,0.15562310814857483,-0.25438392162323,9.808445930480957,-0.005095453932881355,0.01418845821171999,-0.9767686128616333,-0.2137453854084015
1789658577126119335,1789658577136243093,0.01383460033684969,-0.03299019858241081,0.0904569998383522,0.1562216579914093,-0.2819172441959381,9.785700798034668,-0.006227190140634775,0.0139743248000741,-0.9769650101661682,-0.21283045411109924
1789658577135910847,1789658577138755658,0.01383460033684969,-0.03299019858241081,0.0904569998383522,0.1562216579914093,-0.2819172441959381,9.785700798034668,-0.006227190140634775,0.0139743248000741,-0.9769650101661682,-0.21283045411109924
1789658577140910405,1789658577145813670,0.01383460033684969,-0.03299019858241081,0.0904569998383522,0.1562216579914093,-0.2819172441959381,9.785700798034668,-0.006227190140634775,0.0139743248000741,-0.9769650101661682,-0.21283045411109924
1789658577145745173,1789658577157173674,0.01383460033684969,-0.031925998628139496,0.09152120351791382,0.11432313174009323,-0.28371289372444153,9.824606895446777,-0.0071028657257556915,0.01339606661349535,-0.9771682024002075,-0.2119053602218628
1789658577158633504,1789658577161039370,0.01383460033684969,-0.031925998628139496,0.09152120351791382,0.11432313174009323,-0.28371289372444153,9.824606895446777,-0.0071028657257556915,0.01339606661349535,-0.9771682024002075,-0.2119053602218628
1789658577163935438,1789658577165851917,0.01383460033684969,-0.031925998628139496,0.09152120351791382,0.11432313174009323,-0.28371289372444153,9.824606895446777,-0.0071028657257556915,0.01339606661349535,-0.9771682024002075,-0.2119053602218628
1789658577166718752,1789658577177827137,0.01383460033684969,-0.031925998628139496,0.09258539974689484,0.07481880486011505,-0.2849099934101105,9.835978507995605,-0.00790348183363676,0.014206231571733952,-0.977357804775238,-0.21094736456871033
1789658577178758044,1789658577181916509,0.01383460033684969,-0.031925998628139496,0.09258539974689484,0.07481880486011505,-0.2849099934101105,9.835978507995605,-0.00790348183363676,0.014206231571733952,-0.977357804775238,-0.21094736456871033
1789658577182648517,1789658577186860884,0.01383460033684969,-0.031925998628139496,0.09258539974689484,0.07481880486011505,-0.2849099934101105,9.835978507995605,-0.00790348183363676,0.014206231571733952,-0.977357804775238,-0.21094736456871033
1789658577187470859,1789658577197954602,0.012770400382578373,-0.031925998628139496,0.09152120351791382,0.15682020783424377,-0.2513911724090576,9.816824913024902,-0.006214046850800514,0.014358251355588436,-0.9775769710540771,-0.20997540652751923
1789658577198587318,1789658577200773878,0.012770400382578373,-0.031925998628139496,0.09152120351791382,0.15682020783424377,-0.2513911724090576,9.816824913024902,-0.006214046850800514,0.014358251355588436,-0.9775769710540771,-0.20997540652751923
1789658577201461961,1789658577204756013,0.012770400382578373,-0.031925998628139496,0.09152120351791382,0.15682020783424377,-0.2513911724090576,9.816824913024902,-0.006214046850800514,0.014358251355588436,-0.9775769710540771,-0.20997540652751923
1789658577206210306,1789658577219883662,0.012770400382578373,-0.03299019858241081,0.08939280360937119,0.14604629576206207,-0.2298433631658554,9.661800384521484,-0.005111177917569876,0.013918627984821796,-0.9777920842170715,-0.20903152227401733
1789658577219330092,1789658577222773805,0.012770400382578373,-0.03299019858241081,0.08939280360937119,0.14604629576206207,-0.2298433631658554,9.661800384521484,-0.005111177917569876,0.013918627984821796,-0.9777920842170715,-0.20903152227401733
1789658577224208061,1789658577228482630,0.012770400382578373,-0.03299019858241081,0.08939280360937119,0.14604629576206207,-0.2298433631658554,9.661800384521484,-0.005111177917569876,0.013918627984821796,-0.9777920842170715,-0.20903152227401733
1789658577229658064,1789658577240160658,0.01383460033684969,-0.03405439853668213,0.0904569998383522,0.14724339544773102,-0.25438392162323,9.869498252868652,-0.006109287496656179,0.014232412911951542,-0.9779781699180603,-0.20811086893081665
1789658577241164636,1789658577245173271,0.01383460033684969,-0.03405439853668213,0.0904569998383522,0.14724339544773102,-0.25438392162323,9.869498252868652,-0.006109287496656179,0.014232412911951542,-0.9779781699180603,-0.20811086893081665
1789658577245727304,1789658577249071614,0.01383460033684969,-0.03405439853668213,0.0904569998383522,0.14724339544773102,-0.25438392162323,9.869498252868652,-0.006109287496656179,0.014232412911951542,-0.9779781699180603,-0.20811086893081665
1789658577250902725,1789658577260816158,0.01383460033684969,-0.03299019858241081,0.0904569998383522,0.0867898091673851,-0.28131869435310364,9.795876502990723,-0.0067601995542645454,0.013349505141377449,-0.9781807661056519,-0.20719553530216217
1789658577262059089,1789658577264674225,0.01383460033684969,-0.03299019858241081,0.0904569998383522,0.0867898091673851,-0.28131869435310364,9.795876502990723,-0.0067601995542645454,0.013349505141377449,-0.9781807661056519,-0.20719553530216217
1789658577266050725,1789658577270058822,0.01383460033684969,-0.03299019858241081,0.0904569998383522,0.0867898091673851,-0.28131869435310364,9.795876502990723,-0.0067601995542645454,0.013349505141377449,-0.9781807661056519,-0.20719553530216217
1789658577270877678,1789658577281881067,0.011706200428307056,-0.03086180053651333,0.08939280360937119,0.18495208024978638,-0.2627636194229126,9.766547203063965,-0.007016798947006464,0.01488503534346819,-0.9783557653427124,-0.2062535583972931
1789658577281974693,1789658577285050884,0.011706200428307056,-0.03086180053651333,0.08939280360937119,0.18495208024978638,-0.2627636194229126,9.766547203063965,-0.007016798947006464,0.01488503534346819,-0.9783557653427124,-0.2062535583972931
1789658577285885665,1789658577289907502,0.011706200428307056,-0.03086180053651333,0.08939280360937119,0.18495208024978638,-0.2627636194229126,9.766547203063965,-0.007016798947006464,0.01488503534346819,-0.9783557653427124,-0.2062535583972931
1789658577290887741,1789658577302791482,0.01383460033684969,-0.03086180053651333,0.08939280360937119,0.13527239859104156,-0.3016694188117981,9.872490882873535,-0.005480022169649601,0.01575225405395031,-0.9785531759262085,-0.20529770851135254
1789658577302711004,1789658577304871584,0.01383460033684969,-0.03086180053651333,0.08939280360937119,0.13527239859104156,-0.3016694188117981,9.872490882873535,-0.005480022169649601,0.01575225405395031,-0.9785531759262085,-0.20529770851135254
1789658577306296600,1789658577308961511,0.01383460033684969,-0.03086180053651333,0.08939280360937119,0.13527239859104156,-0.3016694188117981,9.872490882873535,-0.005480022169649601,0.01575225405395031,-0.9785531759262085,-0.20529770851135254
1789658577310864694,1789658577323083886,0.01383460033684969,-0.031925998628139496,0.0904569998383522,0.1412578970193863,-0.2585737705230713,9.859322547912598,-0.004408024717122316,0.014208046719431877,-0.9787763953208923,-0.20436932146549225
1789658577323051424,1789658577325673522,0.01383460033684969,-0.031925998628139496,0.0904569998383522,0.1412578970193863,-0.2585737705230713,9.859322547912598,-0.004408024717122316,0.014208046719431877,-0.9787763953208923,-0.20436932146549225
1789658577327147092,1789658577330116972,0.01383460033684969,-0.031925998628139496,0.0904569998383522,0.1412578970193863,-0.2585737705230713,9.859322547912598,-0.004408024717122316,0.014208046719431877,-0.9787763953208923,-0.20436932146549225
1789658577331482195,1789658577343926063,0.01383460033684969,-0.03405439853668213,0.0904569998383522,0.19033902883529663,-0.25258827209472656,9.812036514282227,-0.006786844227463007,0.014477075077593327,-0.9789469838142395,-0.20346656441688538
1789658577343874028,1789658577345835560,0.01383460033684969,-0.03405439853668213,0.0904569998383522,0.19033902883529663,-0.25258827209472656,9.812036514282227,-0.006786844227463007,0.014477075077593327,-0.9789469838142395,-0.20346656441688538
1789658577346605770,1789658577348872604,0.01383460033684969,-0.03405439853668213,0.0904569998383522,0.19033902883529663,-0.25258827209472656,9.812036514282227,-0.006786844227463007,0.014477075077593327,-0.9789469838142395,-0.20346656441688538
1789658577350996815,1789658577353762314,0.01383460033684969,-0.03405439853668213,0.0904569998383522,0.19033902883529663,-0.25258827209472656,9.812036514282227,-0.006786844227463007,0.014477075077593327,-0.9789469838142395,-0.20346656441688538
1789658577364159932,1789658577366911358,0.01383460033684969,-0.035118598490953445,0.0904569998383522,0.14664484560489655,-0.31184476613998413,9.910199165344238,-0.00557449646294117,0.015775762498378754,-0.9791345000267029,-0.2025018036365509
1789658577367341600,1789658577370604783,0.01383460033684969,-0.035118598490953445,0.0904569998383522,0.14664484560489655,-0.31184476613998413,9.910199165344238,-0.00557449646294117,0.015775762498378754,-0.9791345000267029,-0.2025018036365509
1789658577371188092,1789658577373885410,0.01383460033684969,-0.035118598490953445,0.0904569998383522,0.14664484560489655,-0.31184476613998413,9.910199165344238,-0.00557449646294117,0.015775762498378754,-0.9791345000267029,-0.2025018036365509
1789658577375903069,1789658577385950774,0.01383460033684969,-0.031925998628139496,0.09258539974689484,0.12749123573303223,-0.284311443567276,9.876680374145508,-0.005635314621031284,0.014606082811951637,-0.9793473482131958,-0.2015572190284729
1789658577385900721,1789658577388208054,0.01383460033684969,-0.031925998628139496,0.09258539974689484,0.12749123573303223,-0.284311443567276,9.876680374145508,-0.005635314621031284,0.014606082811951637,-0.9793473482131958,-0.2015572190284729
1789658577393202908,1789658577405952652,0.014898800291121006,-0.031925998628139496,0.09152120351791382,0.17896656692028046,-0.28550854325294495,9.942521095275879,-0.005699539557099342,0.01574788987636566,-0.9795259237289429,-0.2005988359451294
1789658577406680123,1789658577409461807,0.014898800291121006,-0.031925998628139496,0.09152120351791382,0.17896656692028046,-0.28550854325294495,9.942521095275879,-0.005699539557099342,0.01574788987636566,-0.9795259237289429,-0.2005988359451294
1789658577410880083,1789658577412938593,0.014898800291121006,-0.031925998628139496,0.09152120351791382,0.17896656692028046,-0.28550854325294495,9.942521095275879,-0.005699539557099342,0.01574788987636566,-0.9795259237289429,-0.2005988359451294
1789658577415907362,1789658577426945064,0.014898800291121006,-0.03086180053651333,0.09152120351791382,0.15502455830574036,-0.27054479718208313,9.95329475402832,-0.005194341763854027,0.014715333469212055,-0.9797374606132507,-0.19965589046478271
1789658577426848235,1789658577429764784,0.014898800291121006,-0.03086180053651333,0.09152120351791382,0.15502455830574036,-0.27054479718208313,9.95329475402832,-0.005194341763854027,0.014715333469212055,-0.9797374606132507,-0.19965589046478271
1789658577431367923,1789658577433906432,0.014898800291121006,-0.03086180053651333,0.09152120351791382,0.15502455830574036,-0.27054479718208313,9.95329475402832,-0.005194341763854027,0.014715333469212055,-0.9797374606132507,-0.19965589046478271
1789658577435915721,1789658577447968716,0.014898800291121006,-0.03086180053651333,0.09258539974689484,0.1454477459192276,-0.2603694200515747,9.81383228302002,-0.004629131406545639,0.014601211063563824,-0.9799379110336304,-0.1986916959285736
1789658577447894108,1789658577451945074,0.014898800291121006,-0.03086180053651333,0.09258539974689484,0.1454477459192276,-0.2603694200515747,9.81383228302002,-0.004629131406545639,0.014601211063563824,-0.9799379110336304,-0.1986916959285736
1789658577452689951,1789658577454844346,0.014898800291121006,-0.03086180053651333,0.09258539974689484,0.1454477459192276,-0.2603694200515747,9.81383228302002,-0.004629131406545639,0.014601211063563824,-0.9799379110336304,-0.1986916959285736
1789658577456832636,1789658577468959147,0.012770400382578373,-0.029797600582242012,0.09152120351791382,0.16160860657691956,-0.27473464608192444,9.926959037780762,-0.004362324718385935,0.014157368801534176,-0.980137050151825,-0.19774600863456726
1789658577469469922,1789658577470663485,0.012770400382578373,-0.029797600582242012,0.09152120351791382,0.16160860657691956,-0.27473464608192444,9.926959037780762,-0.004362324718385935,0.014157368801534176,-0.980137050151825,-0.19774600863456726
1789658577471358679,1789658577474049867,0.012770400382578373,-0.029797600582242012,0.09152120351791382,0.16160860657691956,-0.27473464608192444,9.926959037780762,-0.004362324718385935,0.014157368801534176,-0.980137050151825,-0.19774600863456726
1789658577475881626,1789658577478211051,0.012770400382578373,-0.029797600582242012,0.09152120351791382,0.16160860657691956,-0.27473464608192444,9.926959037780762,-0.004362324718385935,0.014157368801534176,-0.980137050151825,-0.19774600863456726
1789658577480865925,1789658577490062332,0.012770400382578373,-0.029797600582242012,0.09152120351791382,0.13826514780521393,-0.2914940416812897,9.870096206665039,-0.005195407662540674,0.01523728296160698,-0.9803069233894348,-0.1968005746603012
1789658577489985965,1789658577491797966,0.012770400382578373,-0.029797600582242012,0.09152120351791382,0.13826514780521393,-0.2914940416812897,9.870096206665039,-0.005195407662540674,0.01523728296160698,-0.9803069233894348,-0.1968005746603012
1789658577492811295,1789658577496918277,0.012770400382578373,-0.029797600582242012,0.09152120351791382,0.13826514780521393,-0.2914940416812897,9.870096206665039,-0.005195407662540674,0.01523728296160698,-0.9803069233894348,-0.1968005746603012
1789658577497565011,1789658577510894139,0.01383460033684969,-0.029797600582242012,0.0904569998383522,0.17657236754894257,-0.2867056429386139,10.032901763916016,-0.004818665329366922,0.015516198240220547,-0.9804936051368713,-0.19585606455802917
1789658577511427840,1789658577515020325,0.01383460033684969,-0.029797600582242012,0.0904569998383522,0.17657236754894257,-0.2867056429386139,10.032901763916016,-0.004818665329366922,0.015516198240220547,-0.9804936051368713,-0.19585606455802917
1789658577517228476,1789658577520564305,0.01383460033684969,-0.029797600582242012,0.0904569998383522,0.17657236754894257,-0.2867056429386139,10.032901763916016,-0.004818665329366922,0.015516198240220547,-0.9804936051368713,-0.19585606455802917
1789658577521540728,1789658577532760386,0.01383460033684969,-0.029797600582242012,0.0904569998383522,0.15023615956306458,-0.2968810200691223,10.057442665100098,-0.0043680984526872635,0.015812847763299942,-0.980678379535675,-0.19491612911224365
1789658577533444433,1789658577535791116,0.01383460033684969,-0.029797600582242012,0.0904569998383522,0.15023615956306458,-0.2968810200691223,10.057442665100098,-0.0043680984526872635,0.015812847763299942,-0.980678379535675,-0.19491612911224365
1789658577536558974,1789658577539429525,0.01383460033684969,-0.029797600582242012,0.0904569998383522,0.15023615956306458,-0.2968810200691223,10.057442665100098,-0.0043680984526872635,0.015812847763299942,-0.980678379535675,-0.19491612911224365
1789658577540914483,1789658577552002758,0.01383460033684969,-0.028733400627970695,0.0904569998383522,0.193331778049469,-0.2651578485965729,9.943119049072266,-0.0045607928186655045,0.014668429270386696,-0.9808790683746338,-0.19398871064186096
1789658577551927835,1789658577554965138,0.01383460033684969,-0.028733400627970695,0.0904569998383522,0.193331778049469,-0.2651578485965729,9.943119049072266,-0.0045607928186655045,0.014668429270386696,-0.9808790683746338,-0.19398871064186096
1789658577556940596,1789658577559798925,0.01383460033684969,-0.028733400627970695,0.0904569998383522,0.193331778049469,-0.2651578485965729,9.943119049072266,-0.0045607928186655045,0.014668429270386696,-0.9808790683746338,-0.19398871064186096
1789658577561112409,1789658577573444170,0.01383460033684969,-0.029797600582242012,0.0904569998383522,0.19393032789230347,-0.25258827209472656,9.920374870300293,-0.0045066047459840775,0.015297659672796726,-0.9810565114021301,-0.19304212927818298
1789658577572876990,1789658577575793187,0.01383460033684969,-0.029797600582242012,0.0904569998383522,0.19393032789230347,-0.25258827209472656,9.920374870300293,-0.0045066047459840775,0.015297659672796726,-0.9810565114021301,-0.19304212927818298
1789658577576526250,1789658577579878800,0.01383460033684969,-0.029797600582242012,0.0904569998383522,0.19393032789230347,-0.25258827209472656,9.920374870300293,-0.0045066047459840775,0.015297659672796726,-0.9810565114021301,-0.19304212927818298
1789658577581388868,1789658577593997933,0.01383460033684969,-0.03086180053651333,0.09152120351791382,0.12090718746185303,-0.2753331959247589,9.968856811523438,-0.005112089682370424,0.014358555898070335,-0.9812489151954651,-0.19211898744106293
1789658577594887564,1789658577599089006,0.01383460033684969,-0.03086180053651333,0.09152120351791382,0.12090718746185303,-0.2753331959247589,9.968856811523438,-0.005112089682370424,0.014358555898070335,-0.9812489151954651,-0.19211898744106293
1789658577599815273,1789658577603879794,0.01383460033684969,-0.03086180053651333,0.09152120351791382,0.12090718746185303,-0.2753331959247589,9.968856811523438,-0.005112089682370424,0.014358555898070335,-0.9812489151954651,-0.19211898744106293
1789658577604646615,1789658577614900756,0.014898800291121006,-0.03086180053651333,0.09258539974689484,0.16220715641975403,-0.2753331959247589,9.830592155456543,-0.005379592999815941,0.015318655408918858,-0.9814183115959167,-0.1911700963973999
1789658577615556193,1789658577618950667,0.014898800291121006,-0.03086180053651333,0.09258539974689484,0.16220715641975403,-0.2753331959247589,9.830592155456543,-0.005379592999815941,0.015318655408918858,-0.9814183115959167,-0.1911700963973999
1789658577619878982,1789658577624118199,0.014898800291121006,-0.03086180053651333,0.09258539974689484,0.16220715641975403,-0.2753331959247589,9.830592155456543,-0.005379592999815941,0.015318655408918858,-0.9814183115959167,-0.1911700963973999
1789658577624878020,1789658577635960869,0.014898800291121006,-0.03086180053651333,0.09258539974689484,0.12090718746185303,-0.2950853407382965,10.011354446411133,-0.004836669657379389,0.014308932237327099,-0.9816222786903381,-0.19021251797676086
1789658577637825350,1789658577639934580,0.014898800291121006,-0.03086180053651333,0.09258539974689484,0.12090718746185303,-0.2950853407382965,10.011354446411133,-0.004836669657379389,0.014308932237327099,-0.9816222786903381,-0.19021251797676086
1789658577641419983,1789658577645264198,0.014898800291121006,-0.03086180053651333,0.09258539974689484,0.12090718746185303,-0.2950853407382965,10.011354446411133,-0.004836669657379389,0.014308932237327099,-0.9816222786903381,-0.19021251797676086
1789658577645857340,1789658577656788270,0.012770400382578373,-0.028733400627970695,0.0904569998383522,0.11791443079710007,-0.21667525172233582,9.923367500305176,-0.0037920386530458927,0.013579015620052814,-0.9818217158317566,-0.18925875425338745
1789658577656071762,1789658577659027513,0.012770400382578373,-0.028733400627970695,0.0904569998383522,0.11791443079710007,-0.21667525172233582,9.923367500305176,-0.0037920386530458927,0.013579015620052814,-0.9818217158317566,-0.18925875425338745
1789658577660736518,1789658577662706364,0.012770400382578373,-0.028733400627970695,0.0904569998383522,0.11791443079710007,-0.21667525172233582,9.923367500305176,-0.0037920386530458927,0.013579015620052814,-0.9818217158317566,-0.18925875425338745
1789658577665854848,1789658577677020620,0.012770400382578373,-0.028733400627970695,0.09152120351791382,0.19033902883529663,-0.2555810213088989,9.77253246307373,-0.0041862837970256805,0.014743555337190628,-0.9819847345352173,-0.18831467628479004
1789658577676960567,1789658577680813707,0.012770400382578373,-0.028733400627970695,0.09152120351791382,0.19033902883529663,-0.2555810213088989,9.77253246307373,-0.0041862837970256805,0.014743555337190628,-0.9819847345352173,-0.18831467628479004
1789658577681444478,1789658577684119518,0.012770400382578373,-0.028733400627970695,0.09152120351791382,0.19033902883529663,-0.2555810213088989,9.77253246307373,-0.0041862837970256805,0.014743555337190628,-0.9819847345352173,-0.18831467628479004
1789658577685853523,1789658577697916573,0.01383460033684969,-0.028733400627970695,0.0904569998383522,0.10055647045373917,-0.2621650695800781,9.7976713180542,-0.003379194065928459,0.013691311702132225,-0.982184112071991,-0.1873682290315628
1789658577697844965,1789658577701313602,0.01383460033684969,-0.028733400627970695,0.0904569998383522,0.10055647045373917,-0.2621650695800781,9.7976713180542,-0.003379194065928459,0.013691311702132225,-0.982184112071991,-0.1873682290315628
1789658577701405950,1789658577705184446,0.01383460033684969,-0.028733400627970695,0.0904569998383522,0.10055647045373917,-0.2621650695800781,9.7976713180542,-0.003379194065928459,0.013691311702132225,-0.982184112071991,-0.1873682290315628
1789658577706345399,1789658578046557559,0.011706200428307056,-0.029797600582242012,0.08939280360937119,0.1538274586200714,-0.23104046285152435,9.81263542175293,-0.004731861874461174,0.014284845441579819,-0.9823446869850159,-0.1864505410194397
1789658577762072835,1789658578050858256,0.011706200428307056,-0.03086180053651333,0.09364960342645645,0.1759738177061081,-0.21847090125083923,9.83119010925293,-0.005871082656085491,0.013154922053217888,-0.9827082753181458,-0.18457582592964172
1789658577765833739,1789658578052114631,0.011706200428307056,-0.03086180053651333,0.09364960342645645,0.1759738177061081,-0.21847090125083923,9.83119010925293,-0.005871082656085491,0.013154922053217888,-0.9827082753181458,-0.18457582592964172
1789658577770838185,1789658578052931894,0.01383460033684969,-0.031925998628139496,0.09152120351791382,0.23582886159420013,-0.28969839215278625,9.773131370544434,-0.005727177485823631,0.014391154982149601,-0.9828745126724243,-0.1836005598306656
1789658577781933700,1789658578055026976,0.01383460033684969,-0.031925998628139496,0.09152120351791382,0.23582886159420013,-0.28969839215278625,9.773131370544434,-0.005727177485823631,0.014391154982149601,-0.9828745126724243,-0.1836005598306656
1789658577785836265,1789658578055765465,0.01383460033684969,-0.031925998628139496,0.09152120351791382,0.23582886159420013,-0.28969839215278625,9.773131370544434,-0.005727177485823631,0.014391154982149601,-0.9828745126724243,-0.1836005598306656
1789658577790830656,1789658578056686446,0.009577799588441849,-0.031925998628139496,0.0904569998383522,0.1412578970193863,-0.25917232036590576,9.888052940368652,-0.006757527124136686,0.014334097504615784,-0.983041524887085,-0.18267354369163513
1789658577801739771,1789658578057523987,0.009577799588441849,-0.031925998628139496,0.0904569998383522,0.1412578970193863,-0.25917232036590576,9.888052940368652,-0.006757527124136686,0.014334097504615784,-0.983041524887085,-0.18267354369163513
1789658577805981804,1789658578058278104,0.009577799588441849,-0.031925998628139496,0.0904569998383522,0.1412578970193863,-0.25917232036590576,9.888052940368652,-0.006757527124136686,0.014334097504615784,-0.983041524887085,-0.18267354369163513
1789658577810849589,1789658578062578709,0.010641999542713165,-0.03086180053651333,0.0904569998383522,0.14484919607639313,-0.24361002445220947,9.73661994934082,-0.006215433590114117,0.015053287148475647,-0.9832108020782471,-0.18172167241573334
1789658577822909547,1789658578063753939,0.010641999542713165,-0.03086180053651333,0.0904569998383522,0.14484919607639313,-0.24361002445220947,9.73661994934082,-0.006215433590114117,0.015053287148475647,-0.9832108020782471,-0.18172167241573334
1789658577827358312,1789658578065148068,0.010641999542713165,-0.03086180053651333,0.0904569998383522,0.14484919607639313,-0.24361002445220947,9.73661994934082,-0.006215433590114117,0.015053287148475647,-0.9832108020782471,-0.18172167241573334
1789658577830953148,1789658578068587170,0.012770400382578373,-0.029797600582242012,0.0904569998383522,0.12749123573303223,-0.28969839215278625,9.8784761428833,-0.005848833359777927,0.014023606665432453,-0.9833998084068298,-0.1807907074689865
1789658577843821980,1789658578069608277,0.012770400382578373,-0.029797600582242012,0.0904569998383522,0.12749123573303223,-0.28969839215278625,9.8784761428833,-0.005848833359777927,0.014023606665432453,-0.9833998084068298,-0.1807907074689865
1789658577846268252,1789658578070287805,0.012770400382578373,-0.029797600582242012,0.0904569998383522,0.12749123573303223,-0.28969839215278625,9.8784761428833,-0.005848833359777927,0.014023606665432453,-0.9833998084068298,-0.1807907074689865
1789658577991397228,1789658578074223776,0.011706200428307056,-0.03086180053651333,0.09152120351791382,0.22625206410884857,-0.2609679698944092,10.016740798950195,-0.0070613292045891285,0.015181389637291431,-0.9845737218856812,-0.17414267361164093
1789658577995896713,1789658578075034818,0.011706200428307056,-0.03086180053651333,0.09152120351791382,0.22625206410884857,-0.2609679698944092,10.016740798950195,-0.0070613292045891285,0.015181389637291431,-0.9845737218856812,-0.17414267361164093
1789658578000812348,1789658578075709216,0.012770400382578373,-0.025540800765156746,0.09152120351791382,0.1867477297782898,-0.25677812099456787,9.97184944152832,-0.006597699597477913,0.014518870040774345,-0.9847538471221924,-0.17319701611995697
1789658578010782520,1789658578078291260,0.012770400382578373,-0.025540800765156746,0.09152120351791382,0.1867477297782898,-0.25677812099456787,9.97184944152832,-0.006597699597477913,0.014518870040774345,-0.9847538471221924,-0.17319701611995697
1789658578015822613,1789658578080054837,0.012770400382578373,-0.025540800765156746,0.09152120351791382,0.1867477297782898,-0.25677812099456787,9.97184944152832,-0.006597699597477913,0.014518870040774345,-0.9847538471221924,-0.17319701611995697
1789658578020748100,1789658578080718792,0.012770400382578373,-0.028733400627970695,0.09152120351791382,0.17896656692028046,-0.2609679698944092,9.995792388916016,-0.0075872004963457584,0.014439690858125687,-0.9849117398262024,-0.17226150631904602
1789658578031883336,1789658578081738640,0.012770400382578373,-0.028733400627970695,0.09152120351791382,0.17896656692028046,-0.2609679698944092,9.995792388916016,-0.0075872004963457584,0.014439690858125687,-0.9849117398262024,-0.17226150631904602
1789658578035818584,1789658578082300136,0.012770400382578373,-0.028733400627970695,0.09152120351791382,0.17896656692028046,-0.2609679698944092,9.995792388916016,-0.0075872004963457584,0.014439690858125687,-0.9849117398262024,-0.17226150631904602
1789658578040832697,1789658578082897445,0.012770400382578373,-0.031925998628139496,0.0904569998383522,0.17178396880626678,-0.28371289372444153,9.925761222839355,-0.0062773022800683975,0.01530317310243845,-0.9850767850875854,-0.17129385471343994
1789658578052424581,1789658578083605805,0.012770400382578373,-0.031925998628139496,0.0904569998383522,0.17178396880626678,-0.28371289372444153,9.925761222839355,-0.0062773022800683975,0.01530317310243845,-0.9850767850875854,-0.17129385471343994
1789658578059906317,1789658578084392959,0.01383460033684969,-0.03405439853668213,0.0904569998383522,0.1646013706922531,-0.25438392162323,9.906009674072266,-0.005797310266643763,0.014457902871072292,-0.9852551817893982,-0.17035582661628723
1789658578076190938,1789658578085082153,0.01383460033684969,-0.03405439853668213,0.0904569998383522,0.1646013706922531,-0.25438392162323,9.906009674072266,-0.005797310266643763,0.014457902871072292,-0.9852551817893982,-0.17035582661628723
1789658578081076796,1789658578093945758,0.012770400382578373,-0.03299019858241081,0.0904569998383522,0.1454477459192276,-0.2519897222518921,9.962272644042969,-0.006857185624539852,0.014505143277347088,-0.9854069948196411,-0.16943180561065674
1789658578095096231,1789658578099690656,0.012770400382578373,-0.03299019858241081,0.0904569998383522,0.1454477459192276,-0.2519897222518921,9.962272644042969,-0.006857185624539852,0.014505143277347088,-0.9854069948196411,-0.16943180561065674
1789658578099902407,1789658578102962987,0.012770400382578373,-0.03299019858241081,0.0904569998383522,0.1454477459192276,-0.2519897222518921,9.962272644042969,-0.006857185624539852,0.014505143277347088,-0.9854069948196411,-0.16943180561065674
1789658578103451097,1789658578115032760,0.012770400382578373,-0.03086180053651333,0.09152120351791382,0.13766659796237946,-0.2801215946674347,9.921571731567383,-0.005181698594242334,0.014755821786820889,-0.9855801463127136,-0.16845951974391937
1789658578115682697,1789658578119136817,0.012770400382578373,-0.03086180053651333,0.09152120351791382,0.13766659796237946,-0.2801215946674347,9.921571731567383,-0.005181698594242334,0.014755821786820889,-0.9855801463127136,-0.16845951974391937
1789658578120835044,1789658578124157429,0.012770400382578373,-0.03086180053651333,0.09152120351791382,0.13766659796237946,-0.2801215946674347,9.921571731567383,-0.005181698594242334,0.014755821786820889,-0.9855801463127136,-0.16845951974391937
1789658578125836009,1789658578135865383,0.012770400382578373,-0.029797600582242012,0.0904569998383522,0.11971008032560349,-0.2801215946674347,9.97484302520752,-0.005588694009929895,0.013799173757433891,-0.9857507348060608,-0.16752667725086212
1789658578136085448,1789658578137748862,0.012770400382578373,-0.029797600582242012,0.0904569998383522,0.11971008032560349,-0.2801215946674347,9.97484302520752,-0.005588694009929895,0.013799173757433891,-0.9857507348060608,-0.16752667725086212
1789658578140830071,1789658578146078471,0.012770400382578373,-0.029797600582242012,0.0904569998383522,0.11971008032560349,-0.2801215946674347,9.97484302520752,-0.005588694009929895,0.013799173757433891,-0.9857507348060608,-0.16752667725086212
1789658578146317239,1789658578156813001,0.011706200428307056,-0.03086180053651333,0.08939280360937119,0.17178396880626678,-0.2256534993648529,9.974244117736816,-0.005110941361635923,0.013609765097498894,-0.9859142303466797,-0.1665925234556198
1789658578156846684,1789658578159064299,0.011706200428307056,-0.03086180053651333,0.08939280360937119,0.17178396880626678,-0.2256534993648529,9.974244117736816,-0.005110941361635923,0.013609765097498894,-0.9859142303466797,-0.1665925234556198
1789658578160981536,1789658578163488472,0.011706200428307056,-0.03086180053651333,0.08939280360937119,0.17178396880626678,-0.2256534993648529,9.974244117736816,-0.005110941361635923,0.013609765097498894,-0.9859142303466797,-0.1665925234556198
1789658578165860617,1789658578177358431,0.01383460033684969,-0.03299019858241081,0.09152120351791382,0.13587094843387604,-0.2256534993648529,9.944316864013672,-0.004943370819091797,0.012308770790696144,-0.986090898513794,-0.16565100848674774
1789658578176903709,1789658578180714092,0.01383460033684969,-0.03299019858241081,0.09152120351791382,0.13587094843387604,-0.2256534993648529,9.944316864013672,-0.004943370819091797,0.012308770790696144,-0.986090898513794,-0.16565100848674774
1789658578181235719,1789658578183957961,0.01383460033684969,-0.03299019858241081,0.09152120351791382,0.13587094843387604,-0.2256534993648529,9.944316864013672,-0.004943370819091797,0.012308770790696144,-0.986090898513794,-0.16565100848674774
1789658578185877236,1789658578197801496,0.014898800291121006,-0.03086180053651333,0.09152120351791382,0.12270283699035645,-0.25977087020874023,9.834183692932129,-0.005093372892588377,0.01371829491108656,-0.9862319827079773,-0.1646931767463684
1789658578198464524,1789658578201677469,0.014898800291121006,-0.03086180053651333,0.09152120351791382,0.12270283699035645,-0.25977087020874023,9.834183692932129,-0.005093372892588377,0.01371829491108656,-0.9862319827079773,-0.1646931767463684
1789658578201286688,1789658578205814802,0.014898800291121006,-0.03086180053651333,0.09152120351791382,0.12270283699035645,-0.25977087020874023,9.834183692932129,-0.005093372892588377,0.01371829491108656,-0.9862319827079773,-0.1646931767463684
1789658578206238785,1789658578219151320,0.011706200428307056,-0.029797600582242012,0.0904569998383522,0.12449848651885986,-0.31184476613998413,9.812036514282227,-0.004453856963664293,0.015495679341256618,-0.9863700270652771,-0.16372466087341309
1789658578219062397,1789658578222263065,0.011706200428307056,-0.029797600582242012,0.0904569998383522,0.12449848651885986,-0.31184476613998413,9.812036514282227,-0.004453856963664293,0.015495679341256618,-0.9863700270652771,-0.16372466087341309
1789658578222864614,1789658578226089262,0.011706200428307056,-0.029797600582242012,0.0904569998383522,0.12449848651885986,-0.31184476613998413,9.812036514282227,-0.004453856963664293,0.015495679341256618,-0.9863700270652771,-0.16372466087341309
1789658578226911988,1789658578239621846,0.014898800291121006,-0.03086180053651333,0.09152120351791382,0.10235211998224258,-0.26396071910858154,9.764751434326172,-0.00466493982821703,0.014155940152704716,-0.986544132232666,-0.1627877950668335
1789658578240610713,1789658578243859916,0.014898800291121006,-0.03086180053651333,0.09152120351791382,0.10235211998224258,-0.26396071910858154,9.764751434326172,-0.00466493982821703,0.014155940152704716,-0.986544132232666,-0.1627877950668335
1789658578244467095,1789658578247623375,0.014898800291121006,-0.03086180053651333,0.09152120351791382,0.10235211998224258,-0.26396071910858154,9.764751434326172,-0.00466493982821703,0.014155940152704716,-0.986544132232666,-0.1627877950668335
1789658578247619653,1789658578260269958,0.014898800291121006,-0.031925998628139496,0.08939280360937119,0.12689268589019775,-0.28969839215278625,9.834781646728516,-0.005783546715974808,0.014013436622917652,-0.9866920113563538,-0.16186559200286865
1789658578260857249,1789658578263200062,0.014898800291121006,-0.031925998628139496,0.08939280360937119,0.12689268589019775,-0.28969839215278625,9.834781646728516,-0.005783546715974808,0.014013436622917652,-0.9866920113563538,-0.16186559200286865
1789658578266569963,1789658578269981473,0.014898800291121006,-0.031925998628139496,0.08939280360937119,0.12689268589019775,-0.28969839215278625,9.834781646728516,-0.005783546715974808,0.014013436622917652,-0.9866920113563538,-0.16186559200286865
1789658578270822643,1789658578281002047,0.01383460033684969,-0.029797600582242012,0.09152120351791382,0.10115502029657364,-0.25079262256622314,9.786897659301758,-0.00681595504283905,0.013829974457621574,-0.9868395328521729,-0.16093939542770386
1789658578280981585,1789658578284715897,0.01383460033684969,-0.029797600582242012,0.09152120351791382,0.10115502029657364,-0.25079262256622314,9.786897659301758,-0.00681595504283905,0.013829974457621574,-0.9868395328521729,-0.16093939542770386
1789658578285783280,1789658578289281195,0.01383460033684969,-0.029797600582242012,0.09152120351791382,0.10115502029657364,-0.25079262256622314,9.786897659301758,-0.00681595504283905,0.013829974457621574,-0.9868395328521729,-0.16093939542770386
1789658578290903074,1789658578302807964,0.012770400382578373,-0.029797600582242012,0.0904569998383522,0.17717091739177704,-0.2735375463962555,9.812036514282227,-0.0068599465303123,0.015226754359900951,-0.9869745969772339,-0.15998028218746185
1789658578302786409,1789658578306843801,0.012770400382578373,-0.029797600582242012,0.0904569998383522,0.17717091739177704,-0.2735375463962555,9.812036514282227,-0.0068599465303123,0.015226754359900951,-0.9869745969772339,-0.15998028218746185
1789658578307459702,1789658578310652648,0.012770400382578373,-0.029797600582242012,0.0904569998383522,0.17717091739177704,-0.2735375463962555,9.812036514282227,-0.0068599465303123,0.015226754359900951,-0.9869745969772339,-0.15998028218746185
1789658578311725253,1789658578323187475,0.015962999314069748,-0.031925998628139496,0.0904569998383522,0.12030863016843796,-0.2974795699119568,9.892242431640625,-0.00788955483585596,0.015236647799611092,-0.9871172904968262,-0.15904906392097473
1789658578323777600,1789658578327096336,0.015962999314069748,-0.031925998628139496,0.0904569998383522,0.12030863016843796,-0.2974795699119568,9.892242431640625,-0.00788955483585596,0.015236647799611092,-0.9871172904968262,-0.15904906392097473
1789658578327744977,1789658578329657900,0.015962999314069748,-0.031925998628139496,0.0904569998383522,0.12030863016843796,-0.2974795699119568,9.892242431640625,-0.00788955483585596,0.015236647799611092,-0.9871172904968262,-0.15904906392097473
1789658578331317166,1789658578344401231,0.01383460033684969,-0.03405439853668213,0.08939280360937119,0.09576806426048279,-0.28131869435310364,9.768940925598145,-0.006649252958595753,0.014222897589206696,-0.9872937202453613,-0.15810099244117737
1789658578343943527,1789658578346159382,0.01383460033684969,-0.03405439853668213,0.08939280360937119,0.09576806426048279,-0.28131869435310364,9.768940925598145,-0.006649252958595753,0.014222897589206696,-0.9872937202453613,-0.15810099244117737
1789658578346500239,1789658578348507102,0.01383460033684969,-0.03405439853668213,0.08939280360937119,0.09576806426048279,-0.28131869435310364,9.768940925598145,-0.006649252958595753,0.014222897589206696,-0.9872937202453613,-0.15810099244117737
1789658578350917061,1789658578352733839,0.01383460033684969,-0.03405439853668213,0.08939280360937119,0.09576806426048279,-0.28131869435310364,9.768940925598145,-0.006649252958595753,0.014222897589206696,-0.9872937202453613,-0.15810099244117737
1789658578364209265,1789658578367736790,0.011706200428307056,-0.03405439853668213,0.09152120351791382,0.13108253479003906,-0.272938996553421,9.810839653015137,-0.0072860876098275185,0.015073820948600769,-0.9874277114868164,-0.15715491771697998
1789658578367868859,1789658578373350619,0.011706200428307056,-0.03405439853668213,0.09152120351791382,0.13108253479003906,-0.272938996553421,9.810839653015137,-0.0072860876098275185,0.015073820948600769,-0.9874277114868164,-0.15715491771697998
1789658578373246790,1789658578385147532,0.012770400382578373,-0.03086180053651333,0.09152120351791382,0.11791443079710007,-0.3082534670829773,9.874286651611328,-0.005653909407556057,0.015111255459487438,-0.9875935316085815,-0.15617337822914124
1789658578385878836,1789658578388126523,0.012770400382578373,-0.03086180053651333,0.09152120351791382,0.11791443079710007,-0.3082534670829773,9.874286651611328,-0.005653909407556057,0.015111255459487438,-0.9875935316085815,-0.15617337822914124
1789658578390857894,1789658578395352472,0.012770400382578373,-0.03086180053651333,0.09152120351791382,0.11791443079710007,-0.3082534670829773,9.874286651611328,-0.005653909407556057,0.015111255459487438,-0.9875935316085815,-0.15617337822914124
1789658578396099738,1789658578405876603,0.014898800291121006,-0.03086180053651333,0.0904569998383522,0.2346317619085312,-0.2322375625371933,9.891045570373535,-0.007909745909273624,0.014252575114369392,-0.9877327680587769,-0.15527278184890747
1789658578405942508,1789658578408858779,0.014898800291121006,-0.03086180053651333,0.0904569998383522,0.2346317619085312,-0.2322375625371933,9.891045570373535,-0.007909745909273624,0.014252575114369392,-0.9877327680587769,-0.15527278184890747
1789658578410809904,1789658578412938615,0.014898800291121006,-0.03086180053651333,0.0904569998383522,0.2346317619085312,-0.2322375625371933,9.891045570373535,-0.007909745909273624,0.014252575114369392,-0.9877327680587769,-0.15527278184890747
1789658578415809351,1789658578428914711,0.012770400382578373,-0.03405439853668213,0.09258539974689484,0.14903905987739563,-0.2932896912097931,9.928753852844238,-0.006437123287469149,0.01518893800675869,-0.9878842234611511,-0.15428544580936432
1789658578428649389,1789658578432835479,0.012770400382578373,-0.03405439853668213,0.09258539974689484,0.14903905987739563,-0.2932896912097931,9.928753852844238,-0.006437123287469149,0.01518893800675869,-0.9878842234611511,-0.15428544580936432
1789658578433038526,1789658578436531052,0.012770400382578373,-0.03405439853668213,0.09258539974689484,0.14903905987739563,-0.2932896912097931,9.928753852844238,-0.006437123287469149,0.01518893800675869,-0.9878842234611511,-0.15428544580936432
1789658578437434330,1789658578448243450,0.012770400382578373,-0.031925998628139496,0.0904569998383522,0.14365209639072418,-0.25438392162323,9.911396026611328,-0.0054023973643779755,0.014917935244739056,-0.9880437254905701,-0.15332722663879395
1789658578448622361,1789658578452928983,0.012770400382578373,-0.031925998628139496,0.0904569998383522,0.14365209639072418,-0.25438392162323,9.911396026611328,-0.0054023973643779755,0.014917935244739056,-0.9880437254905701,-0.15332722663879395
1789658578453848483,1789658578457197867,0.012770400382578373,-0.031925998628139496,0.0904569998383522,0.14365209639072418,-0.25438392162323,9.911396026611328,-0.0054023973643779755,0.014917935244739056,-0.9880437254905701,-0.15332722663879395
1789658578468879970,1789658578471605323,0.012770400382578373,-0.031925998628139496,0.08939280360937119,0.13168108463287354,-0.2495955228805542,9.906009674072266,-0.006541975308209658,0.014546907506883144,-0.9881833791732788,-0.1524152010679245
1789658578471308224,1789658578473246719,0.012770400382578373,-0.031925998628139496,0.08939280360937119,0.13168108463287354,-0.2495955228805542,9.906009674072266,-0.006541975308209658,0.014546907506883144,-0.9881833791732788,-0.1524152010679245
1789658578475817560,1789658578478062488,0.012770400382578373,-0.031925998628139496,0.08939280360937119,0.13168108463287354,-0.2495955228805542,9.906009674072266,-0.006541975308209658,0.014546907506883144,-0.9881833791732788,-0.1524152010679245
1789658578480845006,1789658578490332086,0.011706200428307056,-0.031925998628139496,0.0904569998383522,0.13108253479003906,-0.2256534993648529,9.951498985290527,-0.00531493965536356,0.013839999213814735,-0.9883469343185425,-0.1514662504196167
1789658578489971212,1789658578492671454,0.011706200428307056,-0.031925998628139496,0.0904569998383522,0.13108253479003906,-0.2256534993648529,9.951498985290527,-0.00531493965536356,0.013839999213814735,-0.9883469343185425,-0.1514662504196167
1789658578492521294,1789658578497044000,0.011706200428307056,-0.031925998628139496,0.0904569998383522,0.13108253479003906,-0.2256534993648529,9.951498985290527,-0.00531493965536356,0.013839999213814735,-0.9883469343185425,-0.1514662504196167
1789658578497018150,1789658578499747984,0.011706200428307056,-0.031925998628139496,0.0904569998383522,0.13108253479003906,-0.2256534993648529,9.951498985290527,-0.00531493965536356,0.013839999213814735,-0.9883469343185425,-0.1514662504196167
1789658578500989138,1789658578510089900,0.012770400382578373,-0.03086180053651333,0.0904569998383522,0.1759738177061081,-0.272938996553421,9.934141159057617,-0.006094773765653372,0.015011412091553211,-0.9884707927703857,-0.15051379799842834
1789658578509963535,1789658578513009245,0.012770400382578373,-0.03086180053651333,0.0904569998383522,0.1759738177061081,-0.272938996553421,9.934141159057617,-0.006094773765653372,0.015011412091553211,-0.9884707927703857,-0.15051379799842834
1789658578513615147,1789658578518014155,0.012770400382578373,-0.03086180053651333,0.0904569998383522,0.1759738177061081,-0.272938996553421,9.934141159057617,-0.006094773765653372,0.015011412091553211,-0.9884707927703857,-0.15051379799842834
1789658578518542041,1789658578531147514,0.01383460033684969,-0.029797600582242012,0.09152120351791382,0.15801730751991272,-0.26994624733924866,9.967659950256348,-0.005858471151441336,0.015493732877075672,-0.988609790802002,-0.14955784380435944
1789658578532743746,1789658578536015873,0.01383460033684969,-0.029797600582242012,0.09152120351791382,0.15801730751991272,-0.26994624733924866,9.967659950256348,-0.005858471151441336,0.015493732877075672,-0.988609790802002,-0.14955784380435944
1789658578536537722,1789658578541097668,0.01383460033684969,-0.029797600582242012,0.09152120351791382,0.15801730751991272,-0.26994624733924866,9.967659950256348,-0.005858471151441336,0.015493732877075672,-0.988609790802002,-0.14955784380435944
1789658578541495578,1789658578552347418,0.01383460033684969,-0.03086180053651333,0.09258539974689484,0.09696516394615173,-0.29867666959762573,10.071807861328125,-0.0050103431567549706,0.014384900219738483,-0.9887766242027283,-0.14859367907047272
1789658578552850916,1789658578557336069,0.01383460033684969,-0.03086180053651333,0.09258539974689484,0.09696516394615173,-0.29867666959762573,10.071807861328125,-0.0050103431567549706,0.014384900219738483,-0.9887766242027283,-0.14859367907047272
1789658578558929986,1789658578561073788,0.01383460033684969,-0.03086180053651333,0.09258539974689484,0.09696516394615173,-0.29867666959762573,10.071807861328125,-0.0050103431567549706,0.014384900219738483,-0.9887766242027283,-0.14859367907047272
1789658578562089655,1789658578572920218,0.012770400382578373,-0.02766920067369938,0.09364960342645645,0.17956513166427612,-0.22924481332302094,9.972448348999023,-0.004544356372207403,0.014248490333557129,-0.9889273643493652,-0.14761507511138916
1789658578573749221,1789658578578127841,0.012770400382578373,-0.02766920067369938,0.09364960342645645,0.17956513166427612,-0.22924481332302094,9.972448348999023,-0.004544356372207403,0.014248490333557129,-0.9889273643493652,-0.14761507511138916
1789658578578696781,1789658578581784453,0.012770400382578373,-0.02766920067369938,0.09364960342645645,0.17956513166427612,-0.22924481332302094,9.972448348999023,-0.004544356372207403,0.014248490333557129,-0.9889273643493652,-0.14761507511138916
1789658578582629493,1789658578594121511,0.011706200428307056,-0.031925998628139496,0.09152120351791382,0.20350714027881622,-0.2669534981250763,9.874286651611328,-0.004359149839729071,0.014897588640451431,-0.9890623092651367,-0.1466498225927353
1789658578594740393,1789658578598477631,0.011706200428307056,-0.031925998628139496,0.09152120351791382,0.20350714027881622,-0.2669534981250763,9.874286651611328,-0.004359149839729071,0.014897588640451431,-0.9890623092651367,-0.1466498225927353
1789658578599393409,1789658578604560664,0.011706200428307056,-0.031925998628139496,0.09152120351791382,0.20350714027881622,-0.2669534981250763,9.874286651611328,-0.004359149839729071,0.014897588640451431,-0.9890623092651367,-0.1466498225927353
1789658578604830097,1789658578614910432,0.012770400382578373,-0.031925998628139496,0.0904569998383522,0.13407529890537262,-0.2555810213088989,9.92097282409668,-0.00563444709405303,0.014620047062635422,-0.9891966581344604,-0.145725280046463
1789658578615637013,1789658578619109651,0.012770400382578373,-0.031925998628139496,0.0904569998383522,0.13407529890537262,-0.2555810213088989,9.92097282409668,-0.00563444709405303,0.014620047062635422,-0.9891966581344604,-0.145725280046463
1789658578621540461,1789658578624172503,0.012770400382578373,-0.031925998628139496,0.0904569998383522,0.13407529890537262,-0.2555810213088989,9.92097282409668,-0.00563444709405303,0.014620047062635422,-0.9891966581344604,-0.145725280046463
1789658578625694700,1789658578635304146,0.011706200428307056,-0.029797600582242012,0.09258539974689484,0.15682020783424377,-0.24001871049404144,9.924564361572266,-0.005714929196983576,0.015201954171061516,-0.9893297553062439,-0.144755557179451
1789658578634905736,1789658578637848136,0.011706200428307056,-0.029797600582242012,0.09258539974689484,0.15682020783424377,-0.24001871049404144,9.924564361572266,-0.005714929196983576,0.015201954171061516,-0.9893297553062439,-0.144755557179451
1789658578638460223,1789658578642054059,0.011706200428307056,-0.029797600582242012,0.09258539974689484,0.15682020783424377,-0.24001871049404144,9.924564361572266,-0.005714929196983576,0.015201954171061516,-0.9893297553062439,-0.144755557179451
1789658578642582686,1789658578645376851,0.011706200428307056,-0.029797600582242012,0.09258539974689484,0.15682020783424377,-0.24001871049404144,9.924564361572266,-0.005714929196983576,0.015201954171061516,-0.9893297553062439,-0.144755557179451
1789658578646337923,1789658578656261597,0.011706200428307056,-0.029797600582242012,0.0904569998383522,0.12868833541870117,-0.2472013235092163,9.964068412780762,-0.006414450705051422,0.01391090452671051,-0.989481508731842,-0.1438159942626953
1789658578656151824,1789658578659066299,0.011706200428307056,-0.029797600582242012,0.0904569998383522,0.12868833541870117,-0.2472013235092163,9.964068412780762,-0.006414450705051422,0.01391090452671051,-0.989481508731842,-0.1438159942626953
1789658578660908484,1789658578662699708,0.011706200428307056,-0.029797600582242012,0.0904569998383522,0.12868833541870117,-0.2472013235092163,9.964068412780762,-0.006414450705051422,0.01391090452671051,-0.989481508731842,-0.1438159942626953
1789658578665855377,1789658578678050978,0.01383460033684969,-0.03086180053651333,0.09152120351791382,0.1777694672346115,-0.2298433631658554,9.91977596282959,-0.006890411954373121,0.01305136177688837,-0.9896267652511597,-0.1428721398115158
1789658578678135733,1789658578681992633,0.01383460033684969,-0.03086180053651333,0.09152120351791382,0.1777694672346115,-0.2298433631658554,9.91977596282959,-0.006890411954373121,0.01305136177688837,-0.9896267652511597,-0.1428721398115158
1789658578682715030,1789658578685805554,0.01383460033684969,-0.03086180053651333,0.09152120351791382,0.1777694672346115,-0.2298433631658554,9.91977596282959,-0.006890411954373121,0.01305136177688837,-0.9896267652511597,-0.1428721398115158
1789658578686965470,1789658578698125168,0.014898800291121006,-0.031925998628139496,0.09152120351791382,0.1586158573627472,-0.26994624733924866,9.840168952941895,-0.006145772058516741,0.014633921906352043,-0.989750862121582,-0.14189030230045319
1789658578699379488,1789658578702878143,0.014898800291121006,-0.031925998628139496,0.09152120351791382,0.1586158573627472,-0.26994624733924866,9.840168952941895,-0.006145772058516741,0.014633921906352043,-0.989750862121582,-0.14189030230045319
1789658578703455286,1789658578707415497,0.014898800291121006,-0.031925998628139496,0.09152120351791382,0.1586158573627472,-0.26994624733924866,9.840168952941895,-0.006145772058516741,0.014633921906352043,-0.989750862121582,-0.14189030230045319
1789658578707555713,1789658578719134876,0.012770400382578373,-0.031925998628139496,0.09258539974689484,0.08798690885305405,-0.2819172441959381,9.919177055358887,-0.0045247264206409454,0.01417846791446209,-0.9899055361747742,-0.14091509580612183
1789658578720013785,1789658578724458161,0.012770400382578373,-0.031925998628139496,0.09258539974689484,0.08798690885305405,-0.2819172441959381,9.919177055358887,-0.0045247264206409454,0.01417846791446209,-0.9899055361747742,-0.14091509580612183
1789658578725655243,1789658578728382411,0.012770400382578373,-0.031925998628139496,0.09258539974689484,0.08798690885305405,-0.2819172441959381,9.919177055358887,-0.0045247264206409454,0.01417846791446209,-0.9899055361747742,-0.14091509580612183
1789658578730851737,1789658578740028663,0.01383460033684969,-0.03086180053651333,0.09364960342645645,0.12389993667602539,-0.25438392162323,9.82999324798584,-0.005463328678160906,0.014472709968686104,-0.9900335073471069,-0.13994857668876648
1789658578739971628,1789658578741884496,0.01383460033684969,-0.03086180053651333,0.09364960342645645,0.12389993667602539,-0.25438392162323,9.82999324798584,-0.005463328678160906,0.014472709968686104,-0.9900335073471069,-0.13994857668876648
1789658578742609781,1789658578748054728,0.01383460033684969,-0.03086180053651333,0.09364960342645645,0.12389993667602539,-0.25438392162323,9.82999324798584,-0.005463328678160906,0.014472709968686104,-0.9900335073471069,-0.13994857668876648
1789658578748692814,1789658578760535595,0.012770400382578373,-0.029797600582242012,0.09258539974689484,0.09397241473197937,-0.22625206410884857,9.895235061645508,-0.005877797957509756,0.012961169704794884,-0.9901873469352722,-0.13898877799510956
1789658578760772030,1789658578764004215,0.012770400382578373,-0.029797600582242012,0.09258539974689484,0.09397241473197937,-0.22625206410884857,9.895235061645508,-0.005877797957509756,0.012961169704794884,-0.9901873469352722,-0.13898877799510956
1789658578765742496,1789658578770129986,0.012770400382578373,-0.029797600582242012,0.09258539974689484,0.09397241473197937,-0.22625206410884857,9.895235061645508,-0.005877797957509756,0.012961169704794884,-0.9901873469352722,-0.13898877799510956
1789658578770786145,1789658578781349089,0.012770400382578373,-0.03086180053651333,0.09152120351791382,0.1478419452905655,-0.23044191300868988,9.882067680358887,-0.006435768213123083,0.013540144078433514,-0.9903097748756409,-0.13803347945213318
1789658578781769220,1789658578784519276,0.012770400382578373,-0.03086180053651333,0.09152120351791382,0.1478419452905655,-0.23044191300868988,9.882067680358887,-0.006435768213123083,0.013540144078433514,-0.9903097748756409,-0.13803347945213318
1789658578785969236,1789658578788467654,0.012770400382578373,-0.03086180053651333,0.09152120351791382,0.1478419452905655,-0.23044191300868988,9.882067680358887,-0.006435768213123083,0.013540144078433514,-0.9903097748756409,-0.13803347945213318
1789658578792065435,1789658578802017404,0.011706200428307056,-0.029797600582242012,0.09152120351791382,0.2059013396501541,-0.25677812099456787,9.746794700622559,-0.006090937647968531,0.013210226781666279,-0.9904492497444153,-0.13707731664180756
1789658578801968239,1789658578803806387,0.011706200428307056,-0.029797600582242012,0.09152120351791382,0.2059013396501541,-0.25677812099456787,9.746794700622559,-0.006090937647968531,0.013210226781666279,-0.9904492497444153,-0.13707731664180756
1789658578805783178,1789658578808978215,0.011706200428307056,-0.029797600582242012,0.09152120351791382,0.2059013396501541,-0.25677812099456787,9.746794700622559,-0.006090937647968531,0.013210226781666279,-0.9904492497444153,-0.13707731664180756
1789658578810805105,1789658578823472779,0.011706200428307056,-0.03086180053651333,0.09258539974689484,0.1107318252325058,-0.2412158101797104,9.879075050354004,-0.005496279802173376,0.012086376547813416,-0.9905990958213806,-0.1361193060874939
1789658578823702399,1789658578829196678,0.011706200428307056,-0.03086180053651333,0.09258539974689484,0.1107318252325058,-0.2412158101797104,9.879075050354004,-0.005496279802173376,0.012086376547813416,-0.9905990958213806,-0.1361193060874939
1789658578829968165,1789658578836357519,0.011706200428307056,-0.03086180053651333,0.09258539974689484,0.1107318252325058,-0.2412158101797104,9.879075050354004,-0.005496279802173376,0.012086376547813416,-0.9905990958213806,-0.1361193060874939
1789658578833497578,1789658578844189740,0.01383460033684969,-0.03086180053651333,0.0904569998383522,0.14365209639072418,-0.22744916379451752,10.022727012634277,-0.0062917363829910755,0.012538259848952293,-0.9907176494598389,-0.13517816364765167
1789658578844750199,1789658578848426161,0.01383460033684969,-0.03086180053651333,0.0904569998383522,0.14365209639072418,-0.22744916379451752,10.022727012634277,-0.0062917363829910755,0.012538259848952293,-0.9907176494598389,-0.13517816364765167
1789658578848530305,1789658578850986651,0.01383460033684969,-0.03086180053651333,0.0904569998383522,0.14365209639072418,-0.22744916379451752,10.022727012634277,-0.0062917363829910755,0.012538259848952293,-0.9907176494598389,-0.13517816364765167
1789658578851590867,1789658578867124852,0.014898800291121006,-0.031925998628139496,0.08939280360937119,0.14484919607639313,-0.23403321206569672,9.843161582946777,-0.005899525713175535,0.013062095269560814,-0.9908424615859985,-0.13422775268554688
1789658578867331269,1789658578868664975,0.014898800291121006,-0.031925998628139496,0.08939280360937119,0.14484919607639313,-0.23403321206569672,9.843161582946777,-0.005899525713175535,0.013062095269560814,-0.9908424615859985,-0.13422775268554688
1789658578871249889,1789658578874628031,0.014898800291121006,-0.031925998628139496,0.08939280360937119,0.14484919607639313,-0.23403321206569672,9.843161582946777,-0.005899525713175535,0.013062095269560814,-0.9908424615859985,-0.13422775268554688
1789658578875802446,1789658578885365079,0.012770400382578373,-0.03405439853668213,0.08939280360937119,0.19273322820663452,-0.24361002445220947,9.80724811553955,-0.008147618733346462,0.013552212156355381,-0.990942656993866,-0.13331957161426544
1789658578885364542,1789658578888299405,0.012770400382578373,-0.03405439853668213,0.08939280360937119,0.19273322820663452,-0.24361002445220947,9.80724811553955,-0.008147618733346462,0.013552212156355381,-0.990942656993866,-0.13331957161426544
1789658578889049023,1789658578893042529,0.012770400382578373,-0.03405439853668213,0.08939280360937119,0.19273322820663452,-0.24361002445220947,9.80724811553955,-0.008147618733346462,0.013552212156355381,-0.990942656993866,-0.13331957161426544
1789658578893296389,1789658578906883193,0.012770400382578373,-0.03299019858241081,0.0904569998383522,0.23822306096553802,-0.22505494952201843,9.906009674072266,-0.008378432132303715,0.01429399661719799,-0.9910567998886108,-0.13237570226192474
1789658578907885430,1789658578910864995,0.012770400382578373,-0.03299019858241081,0.0904569998383522,0.23822306096553802,-0.22505494952201843,9.906009674072266,-0.008378432132303715,0.01429399661719799,-0.9910567998886108,-0.13237570226192474
1789658578911502969,1789658578914857963,0.012770400382578373,-0.03299019858241081,0.0904569998383522,0.23822306096553802,-0.22505494952201843,9.906009674072266,-0.008378432132303715,0.01429399661719799,-0.9910567998886108,-0.13237570226192474
1789658578916617744,1789658578927169745,0.012770400382578373,-0.029797600582242012,0.09258539974689484,0.17238251864910126,-0.27653029561042786,9.900622367858887,-0.007173657417297363,0.014258191920816898,-0.9911960959434509,-0.1314041018486023
1789658578927078674,1789658578929085390,0.012770400382578373,-0.029797600582242012,0.09258539974689484,0.17238251864910126,-0.27653029561042786,9.900622367858887,-0.007173657417297363,0.014258191920816898,-0.9911960959434509,-0.1314041018486023
1789658578930803950,1789658578934978930,0.012770400382578373,-0.029797600582242012,0.09258539974689484,0.17238251864910126,-0.27653029561042786,9.900622367858887,-0.007173657417297363,0.014258191920816898,-0.9911960959434509,-0.1314041018486023
1789658578935822544,1789658578948067717,0.01383460033684969,-0.031925998628139496,0.09258539974689484,0.12629413604736328,-0.243011474609375,9.916184425354004,-0.006822831928730011,0.012816292233765125,-0.9913450479507446,-0.1304437667131424
1789658578948298448,1789658578951047485,0.01383460033684969,-0.031925998628139496,0.09258539974689484,0.12629413604736328,-0.243011474609375,9.916184425354004,-0.006822831928730011,0.012816292233765125,-0.9913450479507446,-0.1304437667131424
1789658578950887955,1789658578955457474,0.01383460033684969,-0.031925998628139496,0.09258539974689484,0.12629413604736328,-0.243011474609375,9.916184425354004,-0.006822831928730011,0.012816292233765125,-0.9913450479507446,-0.1304437667131424
1789658578957259883,1789658578969222919,0.014898800291121006,-0.031925998628139496,0.09152120351791382,0.193331778049469,-0.228047713637352,9.914987564086914,-0.006500077433884144,0.012428777292370796,-0.9914779663085938,-0.12948335707187653
1789658578969541832,1789658578973257015,0.014898800291121006,-0.031925998628139496,0.09152120351791382,0.193331778049469,-0.228047713637352,9.914987564086914,-0.006500077433884144,0.012428777292370796,-0.9914779663085938,-0.12948335707187653
1789658578973542634,1789658578976983661,0.014898800291121006,-0.031925998628139496,0.09152120351791382,0.193331778049469,-0.228047713637352,9.914987564086914,-0.006500077433884144,0.012428777292370796,-0.9914779663085938,-0.12948335707187653
1789658578977465161,1789658578990352326,0.01383460033684969,-0.03299019858241081,0.0904569998383522,0.17896656692028046,-0.25677812099456787,9.900023460388184,-0.007570089306682348,0.014273407869040966,-0.9915695190429688,-0.12853102385997772
1789658578989789182,1789658578993240950,0.01383460033684969,-0.03299019858241081,0.0904569998383522,0.17896656692028046,-0.25677812099456787,9.900023460388184,-0.007570089306682348,0.014273407869040966,-0.9915695190429688,-0.12853102385997772
1789658578992813893,1789658578996860545,0.01383460033684969,-0.03299019858241081,0.0904569998383522,0.17896656692028046,-0.25677812099456787,9.900023460388184,-0.007570089306682348,0.014273407869040966,-0.9915695190429688,-0.12853102385997772
1789658578996926265,1789658579000307980,0.01383460033684969,-0.03299019858241081,0.0904569998383522,0.17896656692028046,-0.25677812099456787,9.900023460388184,-0.007570089306682348,0.014273407869040966,-0.9915695190429688,-0.12853102385997772
1789658579001102170,1789658579011052251,0.010641999542713165,-0.031925998628139496,0.09152120351791382,0.193331778049469,-0.26575639843940735,9.97603988647461,-0.008470999076962471,0.013778761960566044,-0.9916896820068359,-0.12759825587272644
1789658579010425794,1789658579012910787,0.010641999542713165,-0.031925998628139496,0.09152120351791382,0.193331778049469,-0.26575639843940735,9.97603988647461,-0.008470999076962471,0.013778761960566044,-0.9916896820068359,-0.12759825587272644
1789658579013507337,1789658579017152579,0.010641999542713165,-0.031925998628139496,0.09152120351791382,0.193331778049469,-0.26575639843940735,9.97603988647461,-0.008470999076962471,0.013778761960566044,-0.9916896820068359,-0.12759825587272644
1789658579017948658,1789658579030989354,0.011706200428307056,-0.031925998628139496,0.09152120351791382,0.18914192914962769,-0.26336216926574707,9.91738224029541,-0.008148524910211563,0.014448928646743298,-0.9918079376220703,-0.1266222596168518
1789658579031642347,1789658579034339053,0.011706200428307056,-0.031925998628139496,0.09152120351791382,0.18914192914962769,-0.26336216926574707,9.91738224029541,-0.008148524910211563,0.014448928646743298,-0.9918079376220703,-0.1266222596168518
1789658579036548852,1789658579041146260,0.011706200428307056,-0.031925998628139496,0.09152120351791382,0.18914192914962769,-0.26336216926574707,9.91738224029541,-0.008148524910211563,0.014448928646743298,-0.9918079376220703,-0.1266222596168518
1789658579041283088,1789658579053533983,0.011706200428307056,-0.03086180053651333,0.0904569998383522,0.12689268589019775,-0.3106476664543152,10.082581520080566,-0.008273426443338394,0.013418731279671192,-0.9919407367706299,-0.12568359076976776
1789658579053026836,1789658579065427392,0.011706200428307056,-0.03086180053651333,0.0904569998383522,0.12689268589019775,-0.3106476664543152,10.082581520080566,-0.008273426443338394,0.013418731279671192,-0.9919407367706299,-0.12568359076976776
1789658579061083271,1789658579073607507,0.012770400382578373,-0.029797600582242012,0.0904569998383522,0.21667525172233582,-0.272938996553421,9.882067680358887,-0.007711907383054495,0.013761058449745178,-0.9920609593391418,-0.12473021447658539
1789658579073786592,1789658579077306302,0.012770400382578373,-0.029797600582242012,0.0904569998383522,0.21667525172233582,-0.272938996553421,9.882067680358887,-0.007711907383054495,0.013761058449745178,-0.9920609593391418,-0.12473021447658539
1789658579077660232,1789658579080344365,0.012770400382578373,-0.029797600582242012,0.0904569998383522,0.21667525172233582,-0.272938996553421,9.882067680358887,-0.007711907383054495,0.013761058449745178,-0.9920609593391418,-0.12473021447658539
1789658579080808606,1789658579094243860,0.011706200428307056,-0.03086180053651333,0.0904569998383522,0.1586158573627472,-0.26575639843940735,9.949105262756348,-0.0064260330982506275,0.014034310355782509,-0.992186963558197,-0.12376674264669418
1789658579095271597,1789658579098328381,0.011706200428307056,-0.03086180053651333,0.0904569998383522,0.1586158573627472,-0.26575639843940735,9.949105262756348,-0.0064260330982506275,0.014034310355782509,-0.992186963558197,-0.12376674264669418
1789658579099642920,1789658579103213888,0.011706200428307056,-0.03086180053651333,0.0904569998383522,0.1586158573627472,-0.26575639843940735,9.949105262756348,-0.0064260330982506275,0.014034310355782509,-0.992186963558197,-0.12376674264669418
1789658579103502209,1789658579114363068,0.012770400382578373,-0.029797600582242012,0.0904569998383522,0.2064998894929886,-0.24480712413787842,10.016142845153809,-0.007689972873777151,0.01471834909170866,-0.9922835230827332,-0.12283767014741898
1789658579114712906,1789658579117867390,0.012770400382578373,-0.029797600582242012,0.0904569998383522,0.2064998894929886,-0.24480712413787842,10.016142845153809,-0.007689972873777151,0.01471834909170866,-0.9922835230827332,-0.12283767014741898
1789658579117896814,1789658579121660922,0.012770400382578373,-0.029797600582242012,0.0904569998383522,0.2064998894929886,-0.24480712413787842,10.016142845153809,-0.007689972873777151,0.01471834909170866,-0.9922835230827332,-0.12283767014741898
1789658579121853044,1789658579123797243,0.012770400382578373,-0.029797600582242012,0.0904569998383522,0.2064998894929886,-0.24480712413787842,10.016142845153809,-0.007689972873777151,0.01471834909170866,-0.9922835230827332,-0.12283767014741898
1789658579125748313,1789658579137431157,0.01383460033684969,-0.03086180053651333,0.0904569998383522,0.10773907601833344,-0.2968810200691223,9.900622367858887,-0.0062722875736653805,0.014123953878879547,-0.9924207925796509,-0.12187480181455612
1789658579136816367,1789658579139898890,0.01383460033684969,-0.03086180053651333,0.0904569998383522,0.10773907601833344,-0.2968810200691223,9.900622367858887,-0.0062722875736653805,0.014123953878879547,-0.9924207925796509,-0.12187480181455612
1789658579141333147,1789658579144263233,0.01383460033684969,-0.03086180053651333,0.0904569998383522,0.10773907601833344,-0.2968810200691223,9.900622367858887,-0.0062722875736653805,0.014123953878879547,-0.9924207925796509,-0.12187480181455612
1789658579145785616,1789658579158932234,0.014898800291121006,-0.03086180053651333,0.09152120351791382,0.08499415963888168,-0.284311443567276,9.838373184204102,-0.007259459234774113,0.013805446214973927,-0.9925327301025391,-0.12094143033027649
1789658579156181179,1789658579159563820,0.014898800291121006,-0.03086180053651333,0.09152120351791382,0.08499415963888168,-0.284311443567276,9.838373184204102,-0.007259459234774113,0.013805446214973927,-0.9925327301025391,-0.12094143033027649
1789658579163308910,1789658579165000749,0.014898800291121006,-0.03086180053651333,0.09152120351791382,0.08499415963888168,-0.284311443567276,9.838373184204102,-0.007259459234774113,0.013805446214973927,-0.9925327301025391,-0.12094143033027649
1789658579166746419,1789658579177043949,0.01383460033684969,-0.03299019858241081,0.09152120351791382,0.1215057373046875,-0.2932896912097931,9.995193481445312,-0.005969992373138666,0.014875190332531929,-0.9926456809043884,-0.11995469033718109
1789658579177680960,1789658579180913867,0.01383460033684969,-0.03299019858241081,0.09152120351791382,0.1215057373046875,-0.2932896912097931,9.995193481445312,-0.005969992373138666,0.014875190332531929,-0.9926456809043884,-0.11995469033718109
1789658579181476844,1789658579184428781,0.01383460033684969,-0.03299019858241081,0.09152120351791382,0.1215057373046875,-0.2932896912097931,9.995193481445312,-0.005969992373138666,0.014875190332531929,-0.9926456809043884,-0.11995469033718109
1789658579186256874,1789658579198125692,0.01383460033684969,-0.029797600582242012,0.09258539974689484,0.13347674906253815,-0.2627636194229126,9.888651847839355,-0.006263874005526304,0.013703553006052971,-0.992775022983551,-0.11900532990694046
1789658579198492103,1789658579205040394,0.01383460033684969,-0.029797600582242012,0.09258539974689484,0.13347674906253815,-0.2627636194229126,9.888651847839355,-0.006263874005526304,0.013703553006052971,-0.992775022983551,-0.11900532990694046
1789658579204545692,1789658579207992553,0.01383460033684969,-0.029797600582242012,0.09258539974689484,0.13347674906253815,-0.2627636194229126,9.888651847839355,-0.006263874005526304,0.013703553006052971,-0.992775022983551,-0.11900532990694046
1789658579208593177,1789658579219621621,0.011706200428307056,-0.029797600582242012,0.09152120351791382,0.152031809091568,-0.26994624733924866,9.817423820495605,-0.007008895743638277,0.014484439045190811,-0.9928724765777588,-0.11805368214845657
1789658579220002551,1789658579223254364,0.011706200428307056,-0.029797600582242012,0.09152120351791382,0.152031809091568,-0.26994624733924866,9.817423820495605,-0.007008895743638277,0.014484439045190811,-0.9928724765777588,-0.11805368214845657
1789658579224991979,1789658579228359103,0.011706200428307056,-0.029797600582242012,0.09152120351791382,0.152031809091568,-0.26994624733924866,9.817423820495605,-0.007008895743638277,0.014484439045190811,-0.9928724765777588,-0.11805368214845657
1789658579228866360,1789658579238972304,0.012770400382578373,-0.03299019858241081,0.09152120351791382,0.1304839849472046,-0.29867666959762573,9.856927871704102,-0.0063341897912323475,0.013716877438127995,-0.9930004477500916,-0.11710278689861298
1789658579239550781,1789658579241966925,0.012770400382578373,-0.03299019858241081,0.09152120351791382,0.1304839849472046,-0.29867666959762573,9.856927871704102,-0.0063341897912323475,0.013716877438127995,-0.9930004477500916,-0.11710278689861298
1789658579242696395,1789658579246148645,0.012770400382578373,-0.03299019858241081,0.09152120351791382,0.1304839849472046,-0.29867666959762573,9.856927871704102,-0.0063341897912323475,0.013716877438127995,-0.9930004477500916,-0.11710278689861298
1789658579246819544,1789658579249107637,0.012770400382578373,-0.03299019858241081,0.09152120351791382,0.1304839849472046,-0.29867666959762573,9.856927871704102,-0.0063341897912323475,0.013716877438127995,-0.9930004477500916,-0.11710278689861298
1789658579250769218,1789658579260260372,0.012770400382578373,-0.031925998628139496,0.09152120351791382,0.0933738648891449,-0.2495955228805542,9.849146842956543,-0.00556271243840456,0.012488055042922497,-0.9931333661079407,-0.11614891141653061
1789658579262365380,1789658579265549585,0.012770400382578373,-0.031925998628139496,0.09152120351791382,0.0933738648891449,-0.2495955228805542,9.849146842956543,-0.00556271243840456,0.012488055042922497,-0.9931333661079407,-0.11614891141653061
1789658579266642467,1789658579270039682,0.012770400382578373,-0.031925998628139496,0.09152120351791382,0.0933738648891449,-0.2495955228805542,9.849146842956543,-0.00556271243840456,0.012488055042922497,-0.9931333661079407,-0.11614891141653061
1789658579271042271,1789658579281847502,0.011706200428307056,-0.03086180053651333,0.09152120351791382,0.14604629576206207,-0.25677812099456787,9.832387924194336,-0.00657345587387681,0.01339289452880621,-0.9932255744934082,-0.11520353704690933
1789658579282451274,1789658579285976540,0.011706200428307056,-0.03086180053651333,0.09152120351791382,0.14604629576206207,-0.25677812099456787,9.832387924194336,-0.00657345587387681,0.01339289452880621,-0.9932255744934082,-0.11520353704690933
1789658579286698381,1789658579290643648,0.011706200428307056,-0.03086180053651333,0.09152120351791382,0.14604629576206207,-0.25677812099456787,9.832387924194336,-0.00657345587387681,0.01339289452880621,-0.9932255744934082,-0.11520353704690933
1789658579290946895,1789658579302653367,0.011706200428307056,-0.031925998628139496,0.0904569998383522,0.15263035893440247,-0.2621650695800781,9.86111831665039,-0.006033227778971195,0.01385602168738842,-0.993333101272583,-0.11424757540225983
1789658579302777955,1789658579306165355,0.011706200428307056,-0.031925998628139496,0.0904569998383522,0.15263035893440247,-0.2621650695800781,9.86111831665039,-0.006033227778971195,0.01385602168738842,-0.993333101272583,-0.11424757540225983
1789658579306741943,1789658579309013500,0.011706200428307056,-0.031925998628139496,0.0904569998383522,0.15263035893440247,-0.2621650695800781,9.86111831665039,-0.006033227778971195,0.01385602168738842,-0.993333101272583,-0.11424757540225983
1789658579310785169,1789658579323924047,0.012770400382578373,-0.03086180053651333,0.08939280360937119,0.13946224749088287,-0.2890998423099518,9.79527759552002,-0.007199586369097233,0.014161462895572186,-0.9934269189834595,-0.11332190781831741
1789658579323203095,1789658579325416209,0.012770400382578373,-0.03086180053651333,0.08939280360937119,0.13946224749088287,-0.2890998423099518,9.79527759552002,-0.007199586369097233,0.014161462895572186,-0.9934269189834595,-0.11332190781831741
1789658579326028018,1789658579330052578,0.012770400382578373,-0.03086180053651333,0.08939280360937119,0.13946224749088287,-0.2890998423099518,9.79527759552002,-0.007199586369097233,0.014161462895572186,-0.9934269189834595,-0.11332190781831741
1789658579331654976,1789658579343122773,0.012770400382578373,-0.03086180053651333,0.09152120351791382,0.13706804811954498,-0.27473464608192444,9.815030097961426,-0.0077227517031133175,0.015020769089460373,-0.9935186505317688,-0.11236937344074249
1789658579343722767,1789658579346016082,0.012770400382578373,-0.03086180053651333,0.09152120351791382,0.13706804811954498,-0.27473464608192444,9.815030097961426,-0.0077227517031133175,0.015020769089460373,-0.9935186505317688,-0.11236937344074249
1789658579346815347,1789658579351262667,0.012770400382578373,-0.03086180053651333,0.09152120351791382,0.13706804811954498,-0.27473464608192444,9.815030097961426,-0.0077227517031133175,0.015020769089460373,-0.9935186505317688,-0.11236937344074249
1789658579351978916,1789658579364092983,0.012770400382578373,-0.03405439853668213,0.0904569998383522,0.046088382601737976,-0.25677812099456787,9.713275909423828,-0.006863849703222513,0.013618365861475468,-0.9936524629592896,-0.11141602694988251
1789658579367354185,1789658579371333192,0.012770400382578373,-0.03405439853668213,0.0904569998383522,0.046088382601737976,-0.25677812099456787,9.713275909423828,-0.006863849703222513,0.013618365861475468,-0.9936524629592896,-0.11141602694988251
1789658579371623513,1789658579374088025,0.012770400382578373,-0.03405439853668213,0.0904569998383522,0.046088382601737976,-0.25677812099456787,9.713275909423828,-0.006863849703222513,0.013618365861475468,-0.9936524629592896,-0.11141602694988251
1789658579375774013,1789658579385146116,0.01383460033684969,-0.03299019858241081,0.0904569998383522,0.11192892491817474,-0.28969839215278625,9.795876502990723,-0.007962172850966454,0.01374032162129879,-0.993745744228363,-0.11049240082502365
1789658579385098526,1789658579388294304,0.01383460033684969,-0.03299019858241081,0.0904569998383522,0.11192892491817474,-0.28969839215278625,9.795876502990723,-0.007962172850966454,0.01374032162129879,-0.993745744228363,-0.11049240082502365
1789658579389081569,1789658579392106669,0.01383460033684969,-0.03299019858241081,0.0904569998383522,0.11192892491817474,-0.28969839215278625,9.795876502990723,-0.007962172850966454,0.01374032162129879,-0.993745744228363,-0.11049240082502365
1789658579393213773,1789658579405946926,0.011706200428307056,-0.031925998628139496,0.0904569998383522,0.09876082092523575,-0.24839842319488525,9.84735107421875,-0.0064576007425785065,0.01413390226662159,-0.9938593506813049,-0.10951551795005798
1789658579406507589,1789658579407957549,0.011706200428307056,-0.031925998628139496,0.0904569998383522,0.09876082092523575,-0.24839842319488525,9.84735107421875,-0.0064576007425785065,0.01413390226662159,-0.9938593506813049,-0.10951551795005798
1789658579410795712,1789658579413083601,0.011706200428307056,-0.031925998628139496,0.0904569998383522,0.09876082092523575,-0.24839842319488525,9.84735107421875,-0.0064576007425785065,0.01413390226662159,-0.9938593506813049,-0.10951551795005798
1789658579415821287,1789658579427289936,0.010641999542713165,-0.03086180053651333,0.09152120351791382,0.16101005673408508,-0.2753331959247589,9.867103576660156,-0.005984049756079912,0.014216138981282711,-0.9939669966697693,-0.10855095088481903
1789658579427150331,1789658579430360590,0.010641999542713165,-0.03086180053651333,0.09152120351791382,0.16101005673408508,-0.2753331959247589,9.867103576660156,-0.005984049756079912,0.014216138981282711,-0.9939669966697693,-0.10855095088481903
1789658579430979862,1789658579435864516,0.010641999542713165,-0.03086180053651333,0.09152120351791382,0.16101005673408508,-0.2753331959247589,9.867103576660156,-0.005984049756079912,0.014216138981282711,-0.9939669966697693,-0.10855095088481903
1789658579436323609,1789658579448046766,0.01383460033684969,-0.029797600582242012,0.09152120351791382,0.18315643072128296,-0.28072014451026917,10.000580787658691,-0.006016433238983154,0.01505929697304964,-0.9940588474273682,-0.10758966952562332
1789658579448676389,1789658579452315761,0.01383460033684969,-0.029797600582242012,0.09152120351791382,0.18315643072128296,-0.28072014451026917,10.000580787658691,-0.006016433238983154,0.01505929697304964,-0.9940588474273682,-0.10758966952562332
1789658579452851480,1789658579458000976,0.01383460033684969,-0.029797600582242012,0.09152120351791382,0.18315643072128296,-0.28072014451026917,10.000580787658691,-0.006016433238983154,0.01505929697304964,-0.9940588474273682,-0.10758966952562332
1789658579468220120,1789658579471050209,0.01383460033684969,-0.03299019858241081,0.09152120351791382,0.16519992053508759,-0.26575639843940735,9.927556991577148,-0.005978782661259174,0.014095545746386051,-0.9941754937171936,-0.10663928091526031
1789658579471680443,1789658579474969737,0.01383460033684969,-0.03299019858241081,0.09152120351791382,0.16519992053508759,-0.26575639843940735,9.927556991577148,-0.005978782661259174,0.014095545746386051,-0.9941754937171936,-0.10663928091526031
1789658579476361884,1789658579493156707,0.012770400382578373,-0.03086180053651333,0.08939280360937119,0.20051439106464386,-0.22744916379451752,9.88625717163086,-0.007202585227787495,0.012583078816533089,-0.9942857027053833,-0.10572217404842377
1789658579489266716,1789658579494098632,0.012770400382578373,-0.03086180053651333,0.08939280360937119,0.20051439106464386,-0.22744916379451752,9.88625717163086,-0.007202585227787495,0.012583078816533089,-0.9942857027053833,-0.10572217404842377
1789658579492857145,1789658579497613713,0.012770400382578373,-0.03086180053651333,0.08939280360937119,0.20051439106464386,-0.22744916379451752,9.88625717163086,-0.007202585227787495,0.012583078816533089,-0.9942857027053833,-0.10572217404842377
1789658579497033199,1789658579510083932,0.011706200428307056,-0.031925998628139496,0.08832859992980957,0.16879121959209442,-0.2932896912097931,9.99220085144043,-0.0063448804430663586,0.013365612365305424,-0.994381844997406,-0.10477238148450851
1789658579510678594,1789658579516949619,0.011706200428307056,-0.031925998628139496,0.08832859992980957,0.16879121959209442,-0.2932896912097931,9.99220085144043,-0.0063448804430663586,0.013365612365305424,-0.994381844997406,-0.10477238148450851
1789658579517121149,1789658579520103825,0.011706200428307056,-0.031925998628139496,0.08832859992980957,0.16879121959209442,-0.2932896912097931,9.99220085144043,-0.0063448804430663586,0.013365612365305424,-0.994381844997406,-0.10477238148450851
1789658579521744777,1789658579531230284,0.014898800291121006,-0.03086180053651333,0.0904569998383522,0.1496376097202301,-0.2627636194229126,9.982025146484375,-0.006220365408807993,0.013951703906059265,-0.9944735169410706,-0.10382919013500214
1789658579531160416,1789658579533040322,0.014898800291121006,-0.03086180053651333,0.0904569998383522,0.1496376097202301,-0.2627636194229126,9.982025146484375,-0.006220365408807993,0.013951703906059265,-0.9944735169410706,-0.10382919013500214
1789658579535772971,1789658579538172948,0.014898800291121006,-0.03086180053651333,0.0904569998383522,0.1496376097202301,-0.2627636194229126,9.982025146484375,-0.006220365408807993,0.013951703906059265,-0.9944735169410706,-0.10382919013500214
1789658579540769751,1789658579552223437,0.012770400382578373,-0.028733400627970695,0.0904569998383522,0.15502455830574036,-0.2603694200515747,9.903017044067383,-0.006214441731572151,0.014479587785899639,-0.9945650696754456,-0.10287666320800781
1789658579552079054,1789658579554741706,0.012770400382578373,-0.028733400627970695,0.0904569998383522,0.15502455830574036,-0.2603694200515747,9.903017044067383,-0.006214441731572151,0.014479587785899639,-0.9945650696754456,-0.10287666320800781
1789658579556250423,1789658579560813795,0.012770400382578373,-0.028733400627970695,0.0904569998383522,0.15502455830574036,-0.2603694200515747,9.903017044067383,-0.006214441731572151,0.014479587785899639,-0.9945650696754456,-0.10287666320800781
1789658579561176095,1789658579572187596,0.012770400382578373,-0.029797600582242012,0.09258539974689484,0.15143325924873352,-0.25438392162323,10.053253173828125,-0.005922825075685978,0.013482502661645412,-0.9946799278259277,-0.10191454738378525
1789658579572372736,1789658579575173790,0.012770400382578373,-0.029797600582242012,0.09258539974689484,0.15143325924873352,-0.25438392162323,10.053253173828125,-0.005922825075685978,0.013482502661645412,-0.9946799278259277,-0.10191454738378525
1789658579575691825,1789658579579008913,0.012770400382578373,-0.029797600582242012,0.09258539974689484,0.15143325924873352,-0.25438392162323,10.053253173828125,-0.005922825075685978,0.013482502661645412,-0.9946799278259277,-0.10191454738378525
1789658579580762028,1789658579593862000,0.012770400382578373,-0.029797600582242012,0.09152120351791382,0.19213467836380005,-0.23702596127986908,9.908403396606445,-0.007823397405445576,0.012589375488460064,-0.9947739839553833,-0.10097779333591461
1789658579594005624,1789658579598262600,0.012770400382578373,-0.029797600582242012,0.09152120351791382,0.19213467836380005,-0.23702596127986908,9.908403396606445,-0.007823397405445576,0.012589375488460064,-0.9947739839553833,-0.10097779333591461
1789658579598867761,1789658579604813762,0.012770400382578373,-0.029797600582242012,0.09152120351791382,0.19213467836380005,-0.23702596127986908,9.908403396606445,-0.007823397405445576,0.012589375488460064,-0.9947739839553833,-0.10097779333591461
1789658579603519296,1789658579614069537,0.012770400382578373,-0.031925998628139496,0.09152120351791382,0.181959331035614,-0.2454056739807129,9.995792388916016,-0.007654236629605293,0.01313302293419838,-0.9948646426200867,-0.10002363473176956
1789658579614676587,1789658579617711205,0.012770400382578373,-0.031925998628139496,0.09152120351791382,0.181959331035614,-0.2454056739807129,9.995792388916016,-0.007654236629605293,0.01313302293419838,-0.9948646426200867,-0.10002363473176956
1789658579617774055,1789658579621605956,0.012770400382578373,-0.031925998628139496,0.09152120351791382,0.181959331035614,-0.2454056739807129,9.995792388916016,-0.007654236629605293,0.01313302293419838,-0.9948646426200867,-0.10002363473176956
1789658579621814188,1789658579635093319,0.01383460033684969,-0.029797600582242012,0.0904569998383522,0.15801730751991272,-0.26396071910858154,9.907805442810059,-0.006690410431474447,0.013857448473572731,-0.9949589967727661,-0.0990518182516098
1789658579635690073,1789658579639938939,0.01383460033684969,-0.029797600582242012,0.0904569998383522,0.15801730751991272,-0.26396071910858154,9.907805442810059,-0.006690410431474447,0.013857448473572731,-0.9949589967727661,-0.0990518182516098
1789658579640860309,1789658579643992720,0.01383460033684969,-0.029797600582242012,0.0904569998383522,0.15801730751991272,-0.26396071910858154,9.907805442810059,-0.006690410431474447,0.013857448473572731,-0.9949589967727661,-0.0990518182516098
1789658579645769222,1789658579657417734,0.014898800291121006,-0.029797600582242012,0.0904569998383522,0.15981295704841614,-0.27473464608192444,10.023923873901367,-0.006402255035936832,0.014342106878757477,-0.9950476884841919,-0.0981060117483139
1789658579656425904,1789658579658500413,0.014898800291121006,-0.029797600582242012,0.0904569998383522,0.15981295704841614,-0.27473464608192444,10.023923873901367,-0.006402255035936832,0.014342106878757477,-0.9950476884841919,-0.0981060117483139
1789658579661230099,1789658579666367577,0.014898800291121006,-0.029797600582242012,0.0904569998383522,0.15981295704841614,-0.27473464608192444,10.023923873901367,-0.006402255035936832,0.014342106878757477,-0.9950476884841919,-0.0981060117483139
1789658579665934613,1789658579678126955,0.01383460033684969,-0.03086180053651333,0.09152120351791382,0.12030863016843796,-0.2992752194404602,10.06701946258545,-0.005506287794560194,0.013760111294686794,-0.9951562285423279,-0.09713803976774216
1789658579678877684,1789658579681029598,0.01383460033684969,-0.03086180053651333,0.09152120351791382,0.12030863016843796,-0.2992752194404602,10.06701946258545,-0.005506287794560194,0.013760111294686794,-0.9951562285423279,-0.09713803976774216
1789658579681884322,1789658579684325131,0.01383460033684969,-0.03086180053651333,0.09152120351791382,0.12030863016843796,-0.2992752194404602,10.06701946258545,-0.005506287794560194,0.013760111294686794,-0.9951562285423279,-0.09713803976774216
1789658579685833034,1789658579697045248,0.012770400382578373,-0.02766920067369938,0.0904569998383522,0.17298106849193573,-0.25019407272338867,9.93474006652832,-0.007690245285630226,0.013414363376796246,-0.9952362179756165,-0.09621499478816986
1789658579697525303,1789658579702432957,0.012770400382578373,-0.02766920067369938,0.0904569998383522,0.17298106849193573,-0.25019407272338867,9.93474006652832,-0.007690245285630226,0.013414363376796246,-0.9952362179756165,-0.09621499478816986
1789658579701468126,1789658579704608332,0.012770400382578373,-0.02766920067369938,0.0904569998383522,0.17298106849193573,-0.25019407272338867,9.93474006652832,-0.007690245285630226,0.013414363376796246,-0.9952362179756165,-0.09621499478816986
1789658579705626495,1789658579718138046,0.01383460033684969,-0.03299019858241081,0.09258539974689484,0.22086510062217712,-0.28550854325294495,9.849146842956543,-0.007284868974238634,0.01403006911277771,-0.9953243136405945,-0.09524254500865936
1789658579718044420,1789658579721261735,0.01383460033684969,-0.03299019858241081,0.09258539974689484,0.22086510062217712,-0.28550854325294495,9.849146842956543,-0.007284868974238634,0.01403006911277771,-0.9953243136405945,-0.09524254500865936
1789658579721809472,1789658579724718559,0.01383460033684969,-0.03299019858241081,0.09258539974689484,0.22086510062217712,-0.28550854325294495,9.849146842956543,-0.007284868974238634,0.01403006911277771,-0.9953243136405945,-0.09524254500865936
1789658579725715037,1789658579728150328,0.01383460033684969,-0.03299019858241081,0.09258539974689484,0.22086510062217712,-0.28550854325294495,9.849146842956543,-0.007284868974238634,0.01403006911277771,-0.9953243136405945,-0.09524254500865936
1789658579730823053,1789658579739660179,0.011706200428307056,-0.03405439853668213,0.09152120351791382,0.11133037507534027,-0.27234044671058655,9.883264541625977,-0.007044046651571989,0.015105362050235271,-0.9954027533531189,-0.0942712128162384
1789658579739255695,1789658579743568280,0.011706200428307056,-0.03405439853668213,0.09152120351791382,0.11133037507534027,-0.27234044671058655,9.883264541625977,-0.007044046651571989,0.015105362050235271,-0.9954027533531189,-0.0942712128162384
1789658579743747884,1789658579746581566,0.011706200428307056,-0.03405439853668213,0.09152120351791382,0.11133037507534027,-0.27234044671058655,9.883264541625977,-0.007044046651571989,0.015105362050235271,-0.9954027533531189,-0.0942712128162384
1789658579746722246,1789658579748091154,0.011706200428307056,-0.03405439853668213,0.09152120351791382,0.11133037507534027,-0.27234044671058655,9.883264541625977,-0.007044046651571989,0.015105362050235271,-0.9954027533531189,-0.0942712128162384
1789658579750824636,1789658579760229868,0.009577799588441849,-0.031925998628139496,0.09152120351791382,0.16819266974925995,-0.2214636504650116,9.829395294189453,-0.006999070290476084,0.015651118010282516,-0.9954861402511597,-0.0932997614145279
1789658579761591443,1789658579765246536,0.009577799588441849,-0.031925998628139496,0.09152120351791382,0.16819266974925995,-0.2214636504650116,9.829395294189453,-0.006999070290476084,0.015651118010282516,-0.9954861402511597,-0.0932997614145279
1789658579765923565,1789658579769112455,0.009577799588441849,-0.031925998628139496,0.09152120351791382,0.16819266974925995,-0.2214636504650116,9.829395294189453,-0.006999070290476084,0.015651118010282516,-0.9954861402511597,-0.0932997614145279
1789658579770763777,1789658579781227096,0.011706200428307056,-0.029797600582242012,0.0904569998383522,0.08858545869588852,-0.2753331959247589,9.906009674072266,-0.0059744082391262054,0.014297614805400372,-0.995603084564209,-0.09233441948890686
1789658579781084472,1789658579783935950,0.011706200428307056,-0.029797600582242012,0.0904569998383522,0.08858545869588852,-0.2753331959247589,9.906009674072266,-0.0059744082391262054,0.014297614805400372,-0.995603084564209,-0.09233441948890686
1789658579785789819,1789658579788387715,0.011706200428307056,-0.029797600582242012,0.0904569998383522,0.08858545869588852,-0.2753331959247589,9.906009674072266,-0.0059744082391262054,0.014297614805400372,-0.995603084564209,-0.09233441948890686
1789658579790838412,1789658579802168363,0.011706200428307056,-0.03086180053651333,0.09152120351791382,0.16998831927776337,-0.21128830313682556,9.79527759552002,-0.007671411614865065,0.013155316933989525,-0.995693027973175,-0.09140549600124359
1789658579802102254,1789658579804045547,0.011706200428307056,-0.03086180053651333,0.09152120351791382,0.16998831927776337,-0.21128830313682556,9.79527759552002,-0.007671411614865065,0.013155316933989525,-0.995693027973175,-0.09140549600124359
1789658579805752774,1789658579809969289,0.011706200428307056,-0.03086180053651333,0.09152120351791382,0.16998831927776337,-0.21128830313682556,9.79527759552002,-0.007671411614865065,0.013155316933989525,-0.995693027973175,-0.09140549600124359
1789658579810672465,1789658579823458023,0.01383460033684969,-0.03086180053651333,0.09152120351791382,0.19632454216480255,-0.21966800093650818,9.769539833068848,-0.007509129121899605,0.013548464514315128,-0.9957769513130188,-0.09044196456670761
1789658579825302449,1789658579828754902,0.01383460033684969,-0.03086180053651333,0.09152120351791382,0.19632454216480255,-0.21966800093650818,9.769539833068848,-0.007509129121899605,0.013548464514315128,-0.9957769513130188,-0.09044196456670761
1789658579828014580,1789658579832306648,0.01383460033684969,-0.03086180053651333,0.09152120351791382,0.19632454216480255,-0.21966800093650818,9.769539833068848,-0.007509129121899605,0.013548464514315128,-0.9957769513130188,-0.09044196456670761
1789658579833079154,1789658579843178432,0.011706200428307056,-0.03086180053651333,0.0904569998383522,0.09696516394615173,-0.24660277366638184,9.806650161743164,-0.005772900767624378,0.013351458124816418,-0.9958783984184265,-0.08947717398405075
1789658579843792593,1789658579846333194,0.011706200428307056,-0.03086180053651333,0.0904569998383522,0.09696516394615173,-0.24660277366638184,9.806650161743164,-0.005772900767624378,0.013351458124816418,-0.9958783984184265,-0.08947717398405075
1789658579846781398,1789658579850278313,0.011706200428307056,-0.03086180053651333,0.0904569998383522,0.09696516394615173,-0.24660277366638184,9.806650161743164,-0.005772900767624378,0.013351458124816418,-0.9958783984184265,-0.08947717398405075
1789658579850926416,1789658579853268525,0.011706200428307056,-0.03086180053651333,0.0904569998383522,0.09696516394615173,-0.24660277366638184,9.806650161743164,-0.005772900767624378,0.013351458124816418,-0.9958783984184265,-0.08947717398405075
1789658579864031332,1789658579867435121,0.011706200428307056,-0.029797600582242012,0.09152120351791382,0.2064998894929886,-0.24061726033687592,9.846753120422363,-0.007781681604683399,0.013867097906768322,-0.9959403872489929,-0.08855066448450089
1789658579868192702,1789658579871092696,0.011706200428307056,-0.029797600582242012,0.09152120351791382,0.2064998894929886,-0.24061726033687592,9.846753120422363,-0.007781681604683399,0.013867097906768322,-0.9959403872489929,-0.08855066448450089
1789658579871721059,1789658579874042299,0.011706200428307056,-0.029797600582242012,0.09152120351791382,0.2064998894929886,-0.24061726033687592,9.846753120422363,-0.007781681604683399,0.013867097906768322,-0.9959403872489929,-0.08855066448450089
1789658579875747712,1789658579886233530,0.011706200428307056,-0.031925998628139496,0.09258539974689484,0.12030863016843796,-0.2795230448246002,9.749189376831055,-0.008501879870891571,0.014652784913778305,-0.9960090517997742,-0.08758015930652618
1789658579886129775,1789658579890379418,0.011706200428307056,-0.031925998628139496,0.09258539974689484,0.12030863016843796,-0.2795230448246002,9.749189376831055,-0.008501879870891571,0.014652784913778305,-0.9960090517997742,-0.08758015930652618
1789658579891349157,1789658579894503437,0.011706200428307056,-0.031925998628139496,0.09258539974689484,0.12030863016843796,-0.2795230448246002,9.749189376831055,-0.008501879870891571,0.014652784913778305,-0.9960090517997742,-0.08758015930652618
1789658579896480524,1789658579906305869,0.01383460033684969,-0.031925998628139496,0.09152120351791382,0.16400282084941864,-0.2603694200515747,9.816824913024902,-0.0077742477878928185,0.013593455776572227,-0.9961150288581848,-0.08660824596881866
1789658579906141468,1789658579908075372,0.01383460033684969,-0.031925998628139496,0.09152120351791382,0.16400282084941864,-0.2603694200515747,9.816824913024902,-0.0077742477878928185,0.013593455776572227,-0.9961150288581848,-0.08660824596881866
1789658579910758079,1789658579913040672,0.01383460033684969,-0.031925998628139496,0.09152120351791382,0.16400282084941864,-0.2603694200515747,9.816824913024902,-0.0077742477878928185,0.013593455776572227,-0.9961150288581848,-0.08660824596881866
1789658579915870817,1789658579926999183,0.01383460033684969,-0.03299019858241081,0.09152120351791382,0.17417816817760468,-0.2603694200515747,9.77253246307373,-0.007423004135489464,0.013134568929672241,-0.9962072968482971,-0.08564434945583344
1789658579927358058,1789658579934716705,0.01383460033684969,-0.03299019858241081,0.09152120351791382,0.17417816817760468,-0.2603694200515747,9.77253246307373,-0.007423004135489464,0.013134568929672241,-0.9962072968482971,-0.08564434945583344
1789658579933900905,1789658579937427707,0.01383460033684969,-0.03299019858241081,0.09152120351791382,0.17417816817760468,-0.2603694200515747,9.77253246307373,-0.007423004135489464,0.013134568929672241,-0.9962072968482971,-0.08564434945583344
1789658579937314286,1789658579948358285,0.012770400382578373,-0.03086180053651333,0.09152120351791382,0.18734627962112427,-0.27413609623908997,9.86351203918457,-0.007846996188163757,0.014477412216365337,-0.996267557144165,-0.0846833884716034
1789658579948805601,1789658579952306182,0.012770400382578373,-0.03086180053651333,0.09152120351791382,0.18734627962112427,-0.27413609623908997,9.86351203918457,-0.007846996188163757,0.014477412216365337,-0.996267557144165,-0.0846833884716034
1789658579952965007,1789658579958545986,0.012770400382578373,-0.03086180053651333,0.09152120351791382,0.18734627962112427,-0.27413609623908997,9.86351203918457,-0.007846996188163757,0.014477412216365337,-0.996267557144165,-0.0846833884716034
1789658579968029066,1789658579971040815,0.011706200428307056,-0.03086180053651333,0.09152120351791382,0.17657236754894257,-0.23702596127986908,9.973645210266113,-0.009113333187997341,0.014056609943509102,-0.9963425397872925,-0.08373957872390747
1789658579971559165,1789658579975067190,0.011706200428307056,-0.03086180053651333,0.09152120351791382,0.17657236754894257,-0.23702596127986908,9.973645210266113,-0.009113333187997341,0.014056609943509102,-0.9963425397872925,-0.08373957872390747
1789658579975763218,1789658579978108956,0.011706200428307056,-0.03086180053651333,0.09152120351791382,0.17657236754894257,-0.23702596127986908,9.973645210266113,-0.009113333187997341,0.014056609943509102,-0.9963425397872925,-0.08373957872390747
1789658579980793607,1789658579989870760,0.01383460033684969,-0.03086180053651333,0.0904569998383522,0.16998831927776337,-0.27653029561042786,9.909002304077148,-0.007554729003459215,0.01450895145535469,-0.9964304566383362,-0.08276558667421341
1789658579989179214,1789658579992671036,0.01383460033684969,-0.03086180053651333,0.0904569998383522,0.16998831927776337,-0.27653029561042786,9.909002304077148,-0.007554729003459215,0.01450895145535469,-0.9964304566383362,-0.08276558667421341
1789658579992964135,1789658579996648228,0.01383460033684969,-0.03086180053651333,0.0904569998383522,0.16998831927776337,-0.27653029561042786,9.909002304077148,-0.007554729003459215,0.01450895145535469,-0.9964304566383362,-0.08276558667421341
1789658579996986473,1789658580010220199,0.01383460033684969,-0.03405439853668213,0.09152120351791382,0.1777694672346115,-0.2537853717803955,9.79408073425293,-0.007980842143297195,0.013523239642381668,-0.9965187907218933,-0.08182438462972641
1789658580010916338,1789658580015204424,0.01383460033684969,-0.03405439853668213,0.09152120351791382,0.1777694672346115,-0.2537853717803955,9.79408073425293,-0.007980842143297195,0.013523239642381668,-0.9965187907218933,-0.08182438462972641
1789658580016431301,1789658580019251021,0.01383460033684969,-0.03405439853668213,0.09152120351791382,0.1777694672346115,-0.2537853717803955,9.79408073425293,-0.007980842143297195,0.013523239642381668,-0.9965187907218933,-0.08182438462972641
1789658580021116631,1789658580032828122,0.01383460033684969,-0.03086180053651333,0.09152120351791382,0.23523031175136566,-0.25498247146606445,9.995193481445312,-0.008770802058279514,0.01451624371111393,-0.9965761303901672,-0.0808686837553978
1789658580031126616,1789658580033883283,0.01383460033684969,-0.03086180053651333,0.09152120351791382,0.23523031175136566,-0.25498247146606445,9.995193481445312,-0.008770802058279514,0.01451624371111393,-0.9965761303901672,-0.0808686837553978
1789658580035757041,1789658580038375658,0.01383460033684969,-0.03086180053651333,0.09152120351791382,0.23523031175136566,-0.25498247146606445,9.995193481445312,-0.008770802058279514,0.01451624371111393,-0.9965761303901672,-0.0808686837553978
1789658580040780283,1789658580052248710,0.012770400382578373,-0.03086180053651333,0.0904569998383522,0.17298106849193573,-0.26396071910858154,9.978433609008789,-0.007165087852627039,0.013966365717351437,-0.9966750144958496,-0.07989960163831711
1789658580052161177,1789658580054531914,0.012770400382578373,-0.03086180053651333,0.0904569998383522,0.17298106849193573,-0.26396071910858154,9.978433609008789,-0.007165087852627039,0.013966365717351437,-0.9966750144958496,-0.07989960163831711
1789658580056001114,1789658580060920805,0.012770400382578373,-0.03086180053651333,0.0904569998383522,0.17298106849193573,-0.26396071910858154,9.978433609008789,-0.007165087852627039,0.013966365717351437,-0.9966750144958496,-0.07989960163831711
1789658580061038171,1789658580072075374,0.012770400382578373,-0.03086180053651333,0.09258539974689484,0.07841010391712189,-0.30526071786880493,10.031105995178223,-0.008179932832717896,0.013857552781701088,-0.9967439770698547,-0.07895554602146149
1789658580072038746,1789658580075617121,0.012770400382578373,-0.03086180053651333,0.09258539974689484,0.07841010391712189,-0.30526071786880493,10.031105995178223,-0.008179932832717896,0.013857552781701088,-0.9967439770698547,-0.07895554602146149
1789658580076417940,1789658580079204735,0.012770400382578373,-0.03086180053651333,0.09258539974689484,0.07841010391712189,-0.30526071786880493,10.031105995178223,-0.008179932832717896,0.013857552781701088,-0.9967439770698547,-0.07895554602146149
1789658580080768395,1789658580093585267,0.011706200428307056,-0.03299019858241081,0.09364960342645645,0.22445639967918396,-0.2711433470249176,9.93474006652832,-0.007805601693689823,0.014002576470375061,-0.9968228936195374,-0.07796607166528702
1789658580093315815,1789658580096370692,0.011706200428307056,-0.03299019858241081,0.09364960342645645,0.22445639967918396,-0.2711433470249176,9.93474006652832,-0.007805601693689823,0.014002576470375061,-0.9968228936195374,-0.07796607166528702
1789658580097081349,1789658580100836882,0.011706200428307056,-0.03299019858241081,0.09364960342645645,0.22445639967918396,-0.2711433470249176,9.93474006652832,-0.007805601693689823,0.014002576470375061,-0.9968228936195374,-0.07796607166528702
1789658580101408397,1789658580114229917,0.01383460033684969,-0.03299019858241081,0.09364960342645645,0.12270283699035645,-0.2861070930957794,10.038289070129395,-0.0062171295285224915,0.013910681009292603,-0.9969133138656616,-0.07696177810430527
1789658580114794042,1789658580117839068,0.01383460033684969,-0.03299019858241081,0.09364960342645645,0.12270283699035645,-0.2861070930957794,10.038289070129395,-0.0062171295285224915,0.013910681009292603,-0.9969133138656616,-0.07696177810430527
1789658580118790752,1789658580121427072,0.01383460033684969,-0.03299019858241081,0.09364960342645645,0.12270283699035645,-0.2861070930957794,10.038289070129395,-0.0062171295285224915,0.013910681009292603,-0.9969133138656616,-0.07696177810430527
1789658580122171616,1789658580135449525,0.014898800291121006,-0.03086180053651333,0.09258539974689484,0.1646013706922531,-0.24181437492370605,9.989806175231934,-0.007437354885041714,0.014136486686766148,-0.996975839138031,-0.07599645107984543
1789658580135905062,1789658580139774944,0.014898800291121006,-0.03086180053651333,0.09258539974689484,0.1646013706922531,-0.24181437492370605,9.989806175231934,-0.007437354885041714,0.014136486686766148,-0.996975839138031,-0.07599645107984543
1789658580140862381,1789658580144057567,0.014898800291121006,-0.03086180053651333,0.09258539974689484,0.1646013706922531,-0.24181437492370605,9.989806175231934,-0.007437354885041714,0.014136486686766148,-0.996975839138031,-0.07599645107984543
1789658580145719593,1789658580156534861,0.01383460033684969,-0.031925998628139496,0.0904569998383522,0.13706804811954498,-0.29628247022628784,9.998785018920898,-0.006333291996270418,0.013925406150519848,-0.9970601797103882,-0.07502319663763046
1789658580156444217,1789658580158314845,0.01383460033684969,-0.031925998628139496,0.0904569998383522,0.13706804811954498,-0.29628247022628784,9.998785018920898,-0.006333291996270418,0.013925406150519848,-0.9970601797103882,-0.07502319663763046
1789658580160969220,1789658580163099134,0.01383460033684969,-0.031925998628139496,0.0904569998383522,0.13706804811954498,-0.29628247022628784,9.998785018920898,-0.006333291996270418,0.013925406150519848,-0.9970601797103882,-0.07502319663763046
1789658580165835301,1789658580176774731,0.012770400382578373,-0.03299019858241081,0.0904569998383522,0.08200141042470932,-0.25498247146606445,9.976638793945312,-0.007355446927249432,0.01398514024913311,-0.997123122215271,-0.07407446205615997
1789658580177216084,1789658580179080879,0.012770400382578373,-0.03299019858241081,0.0904569998383522,0.08200141042470932,-0.25498247146606445,9.976638793945312,-0.007355446927249432,0.01398514024913311,-0.997123122215271,-0.07407446205615997
1789658580180598762,1789658580184313705,0.012770400382578373,-0.03299019858241081,0.0904569998383522,0.08200141042470932,-0.25498247146606445,9.976638793945312,-0.007355446927249432,0.01398514024913311,-0.997123122215271,-0.07407446205615997
1789658580186144391,1789658580199078425,0.014898800291121006,-0.031925998628139496,0.09152120351791382,0.19572599232196808,-0.2759317457675934,9.99100399017334,-0.007833801209926605,0.014897041022777557,-0.9971774220466614,-0.07311096042394638
1789658580199033520,1789658580202134339,0.014898800291121006,-0.031925998628139496,0.09152120351791382,0.19572599232196808,-0.2759317457675934,9.99100399017334,-0.007833801209926605,0.014897041022777557,-0.9971774220466614,-0.07311096042394638
1789658580202762110,1789658580204051725,0.014898800291121006,-0.031925998628139496,0.09152120351791382,0.19572599232196808,-0.2759317457675934,9.99100399017334,-0.007833801209926605,0.014897041022777557,-0.9971774220466614,-0.07311096042394638
1789658580205725843,1789658580218305114,0.015962999314069748,-0.029797600582242012,0.09152120351791382,0.12449848651885986,-0.2663549482822418,9.873687744140625,-0.006393081042915583,0.013857225887477398,-0.9972742795944214,-0.07212871313095093
1789658580218204581,1789658580221276512,0.015962999314069748,-0.029797600582242012,0.09152120351791382,0.12449848651885986,-0.2663549482822418,9.873687744140625,-0.006393081042915583,0.013857225887477398,-0.9972742795944214,-0.07212871313095093
1789658580222077202,1789658580226246035,0.015962999314069748,-0.029797600582242012,0.09152120351791382,0.12449848651885986,-0.2663549482822418,9.873687744140625,-0.006393081042915583,0.013857225887477398,-0.9972742795944214,-0.07212871313095093
1789658580226236665,1789658580239174458,0.012770400382578373,-0.029797600582242012,0.0904569998383522,0.1604115068912506,-0.2555810213088989,9.891644477844238,-0.007464950438588858,0.014071323908865452,-0.9973315000534058,-0.07118561118841171
1789658580239647458,1789658580242026103,0.012770400382578373,-0.029797600582242012,0.0904569998383522,0.1604115068912506,-0.2555810213088989,9.891644477844238,-0.007464950438588858,0.014071323908865452,-0.9973315000534058,-0.07118561118841171
1789658580242565507,1789658580246372316,0.012770400382578373,-0.029797600582242012,0.0904569998383522,0.1604115068912506,-0.2555810213088989,9.891644477844238,-0.007464950438588858,0.014071323908865452,-0.9973315000534058,-0.07118561118841171
1789658580247237485,1789658580260570522,0.012770400382578373,-0.031925998628139496,0.0904569998383522,0.12389993667602539,-0.28550854325294495,9.88625717163086,-0.00635514035820961,0.013545832596719265,-0.997414767742157,-0.07022213935852051
1789658580261287382,1789658580266023358,0.012770400382578373,-0.031925998628139496,0.0904569998383522,0.12389993667602539,-0.28550854325294495,9.88625717163086,-0.00635514035820961,0.013545832596719265,-0.997414767742157,-0.07022213935852051
1789658580268980869,1789658580282199281,0.012770400382578373,-0.03299019858241081,0.09258539974689484,0.06883329898118973,-0.2621650695800781,9.842562675476074,-0.006790812127292156,0.012456349097192287,-0.9974930286407471,-0.06926731020212173
1789658580282863735,1789658580285383634,0.012770400382578373,-0.03299019858241081,0.09258539974689484,0.06883329898118973,-0.2621650695800781,9.842562675476074,-0.006790812127292156,0.012456349097192287,-0.9974930286407471,-0.06926731020212173
1789658580286021571,1789658580288279499,0.012770400382578373,-0.03299019858241081,0.09258539974689484,0.06883329898118973,-0.2621650695800781,9.842562675476074,-0.006790812127292156,0.012456349097192287,-0.9974930286407471,-0.06926731020212173
1789658580290806193,1789658580302216752,0.012770400382578373,-0.03299019858241081,0.09152120351791382,0.09576806426048279,-0.2561795711517334,9.939528465270996,-0.006928989198058844,0.013561494648456573,-0.9975448846817017,-0.06829062104225159
1789658580302351617,1789658580306816937,0.012770400382578373,-0.03299019858241081,0.09152120351791382,0.09576806426048279,-0.2561795711517334,9.939528465270996,-0.006928989198058844,0.013561494648456573,-0.9975448846817017,-0.06829062104225159
1789658580306923803,1789658580311561635,0.012770400382578373,-0.03299019858241081,0.09152120351791382,0.09576806426048279,-0.2561795711517334,9.939528465270996,-0.006928989198058844,0.013561494648456573,-0.9975448846817017,-0.06829062104225159
1789658580311809681,1789658580322390180,0.012770400382578373,-0.03086180053651333,0.09152120351791382,0.1280897855758667,-0.29448679089546204,9.963470458984375,-0.007978965528309345,0.013311995193362236,-0.997604489326477,-0.06734901666641235
1789658580322989675,1789658580325242454,0.012770400382578373,-0.03086180053651333,0.09152120351791382,0.1280897855758667,-0.29448679089546204,9.963470458984375,-0.007978965528309345,0.013311995193362236,-0.997604489326477,-0.06734901666641235
1789658580325799765,1789658580330401209,0.012770400382578373,-0.03086180053651333,0.09152120351791382,0.1280897855758667,-0.29448679089546204,9.963470458984375,-0.007978965528309345,0.013311995193362236,-0.997604489326477,-0.06734901666641235
1789658580330863857,1789658580343180843,0.012770400382578373,-0.03086180053651333,0.09152120351791382,0.1173158809542656,-0.22505494952201843,9.820416450500488,-0.008743995800614357,0.013786663301289082,-0.9976559281349182,-0.06638830900192261
1789658580343119179,1789658580345992526,0.012770400382578373,-0.03086180053651333,0.09152120351791382,0.1173158809542656,-0.22505494952201843,9.820416450500488,-0.008743995800614357,0.013786663301289082,-0.9976559281349182,-0.06638830900192261
1789658580346573095,1789658580351444843,0.012770400382578373,-0.03086180053651333,0.09152120351791382,0.1173158809542656,-0.22505494952201843,9.820416450500488,-0.008743995800614357,0.013786663301289082,-0.9976559281349182,-0.06638830900192261
1789658580352089854,1789658580364308195,0.012770400382578373,-0.03086180053651333,0.09152120351791382,0.12389993667602539,-0.3148375153541565,9.907805442810059,-0.007278577424585819,0.013846853747963905,-0.9977317452430725,-0.06540627032518387
1789658580369136890,1789658580371728545,0.012770400382578373,-0.03086180053651333,0.09152120351791382,0.12389993667602539,-0.3148375153541565,9.907805442810059,-0.007278577424585819,0.013846853747963905,-0.9977317452430725,-0.06540627032518387
1789658580371940184,1789658580385314238,0.01383460033684969,-0.029797600582242012,0.08832859992980957,0.1280897855758667,-0.24600422382354736,9.840766906738281,-0.005777950864285231,0.012850984930992126,-0.9978164434432983,-0.06446126848459244
1789658580385778701,1789658580389474774,0.01383460033684969,-0.029797600582242012,0.08832859992980957,0.1280897855758667,-0.24600422382354736,9.840766906738281,-0.005777950864285231,0.012850984930992126,-0.9978164434432983,-0.06446126848459244
1789658580391297905,1789658580394342023,0.01383460033684969,-0.029797600582242012,0.08832859992980957,0.1280897855758667,-0.24600422382354736,9.840766906738281,-0.005777950864285231,0.012850984930992126,-0.9978164434432983,-0.06446126848459244
1789658580395765521,1789658580406095160,0.01383460033684969,-0.03299019858241081,0.08939280360937119,0.10893617570400238,-0.24779987335205078,9.855731010437012,-0.00680572260171175,0.01282606553286314,-0.997869074344635,-0.0635451152920723
1789658580406050532,1789658580408348273,0.01383460033684969,-0.03299019858241081,0.08939280360937119,0.10893617570400238,-0.24779987335205078,9.855731010437012,-0.00680572260171175,0.01282606553286314,-0.997869074344635,-0.0635451152920723
1789658580410758565,1789658580413519435,0.01383460033684969,-0.03299019858241081,0.08939280360937119,0.10893617570400238,-0.24779987335205078,9.855731010437012,-0.00680572260171175,0.01282606553286314,-0.997869074344635,-0.0635451152920723
1789658580415779863,1789658580426292643,0.012770400382578373,-0.031925998628139496,0.09152120351791382,0.09217676520347595,-0.24241292476654053,9.767744064331055,-0.007730359211564064,0.012253941036760807,-0.997929036617279,-0.06260273605585098
1789658580426320123,1789658580429285541,0.012770400382578373,-0.031925998628139496,0.09152120351791382,0.09217676520347595,-0.24241292476654053,9.767744064331055,-0.007730359211564064,0.012253941036760807,-0.997929036617279,-0.06260273605585098
1789658580430763259,1789658580434500220,0.012770400382578373,-0.031925998628139496,0.09152120351791382,0.09217676520347595,-0.24241292476654053,9.767744064331055,-0.007730359211564064,0.012253941036760807,-0.997929036617279,-0.06260273605585098
1789658580435594602,1789658580447468401,0.01383460033684969,-0.031925998628139496,0.09258539974689484,0.14065934717655182,-0.2495955228805542,9.906607627868652,-0.007382095325738192,0.013307712972164154,-0.9979796409606934,-0.0616152323782444
1789658580447176783,1789658580450566943,0.01383460033684969,-0.031925998628139496,0.09258539974689484,0.14065934717655182,-0.2495955228805542,9.906607627868652,-0.007382095325738192,0.013307712972164154,-0.9979796409606934,-0.0616152323782444
1789658580451119939,1789658580454529691,0.01383460033684969,-0.031925998628139496,0.09258539974689484,0.14065934717655182,-0.2495955228805542,9.906607627868652,-0.007382095325738192,0.013307712972164154,-0.9979796409606934,-0.0616152323782444
1789658580457515533,1789658580468291099,0.012770400382578373,-0.03299019858241081,0.09152120351791382,0.14664484560489655,-0.32680851221084595,9.899425506591797,-0.008292131125926971,0.014675603248178959,-0.9980122447013855,-0.06065305694937706
1789658580469047699,1789658580473551221,0.012770400382578373,-0.03299019858241081,0.09152120351791382,0.14664484560489655,-0.32680851221084595,9.899425506591797,-0.008292131125926971,0.014675603248178959,-0.9980122447013855,-0.06065305694937706
1789658580473690382,1789658580477175612,0.012770400382578373,-0.03299019858241081,0.09152120351791382,0.14664484560489655,-0.32680851221084595,9.899425506591797,-0.008292131125926971,0.014675603248178959,-0.9980122447013855,-0.06065305694937706
1789658580477680184,1789658580489447543,0.012770400382578373,-0.03299019858241081,0.09258539974689484,0.14006079733371735,-0.25737667083740234,9.762955665588379,-0.006852173246443272,0.013601075857877731,-0.9980974793434143,-0.059672992676496506
1789658580490164737,1789658580494918305,0.012770400382578373,-0.03299019858241081,0.09258539974689484,0.14006079733371735,-0.25737667083740234,9.762955665588379,-0.006852173246443272,0.013601075857877731,-0.9980974793434143,-0.059672992676496506
1789658580494760570,1789658580498633118,0.012770400382578373,-0.03299019858241081,0.09258539974689484,0.14006079733371735,-0.25737667083740234,9.762955665588379,-0.006852173246443272,0.013601075857877731,-0.9980974793434143,-0.059672992676496506
1789658580498912514,1789658580510422050,0.012770400382578373,-0.031925998628139496,0.09364960342645645,0.1777694672346115,-0.24361002445220947,9.876680374145508,-0.008401263505220413,0.012962520122528076,-0.9981505274772644,-0.058722320944070816
1789658580511012508,1789658580515316001,0.012770400382578373,-0.031925998628139496,0.09364960342645645,0.1777694672346115,-0.24361002445220947,9.876680374145508,-0.008401263505220413,0.012962520122528076,-0.9981505274772644,-0.058722320944070816
1789658580516014807,1789658580519479334,0.012770400382578373,-0.031925998628139496,0.09364960342645645,0.1777694672346115,-0.24361002445220947,9.876680374145508,-0.008401263505220413,0.012962520122528076,-0.9981505274772644,-0.058722320944070816
1789658580520977033,1789658580531292525,0.014898800291121006,-0.03086180053651333,0.09258539974689484,0.13946224749088287,-0.2849099934101105,9.901819229125977,-0.007025585975497961,0.013305232860147953,-0.9982150197029114,-0.057721249759197235
1789658580531197047,1789658580533878902,0.014898800291121006,-0.03086180053651333,0.09258539974689484,0.13946224749088287,-0.2849099934101105,9.901819229125977,-0.007025585975497961,0.013305232860147953,-0.9982150197029114,-0.057721249759197235
1789658580535731975,1789658580538220542,0.014898800291121006,-0.03086180053651333,0.09258539974689484,0.13946224749088287,-0.2849099934101105,9.901819229125977,-0.007025585975497961,0.013305232860147953,-0.9982150197029114,-0.057721249759197235
1789658580540757884,1789658580551525895,0.01383460033684969,-0.031925998628139496,0.09152120351791382,0.2017114907503128,-0.25917232036590576,9.914987564086914,-0.006928161717951298,0.013931588269770145,-0.9982630014419556,-0.05674735829234123
1789658580551497192,1789658580554509682,0.01383460033684969,-0.031925998628139496,0.09152120351791382,0.2017114907503128,-0.25917232036590576,9.914987564086914,-0.006928161717951298,0.013931588269770145,-0.9982630014419556,-0.05674735829234123
1789658580556294462,1789658580558803935,0.01383460033684969,-0.031925998628139496,0.09152120351791382,0.2017114907503128,-0.25917232036590576,9.914987564086914,-0.006928161717951298,0.013931588269770145,-0.9982630014419556,-0.05674735829234123
1789658580560823298,1789658580572576510,0.014898800291121006,-0.03086180053651333,0.09152120351791382,0.1777694672346115,-0.2914940416812897,9.87967300415039,-0.008233540691435337,0.01530065480619669,-0.9982870817184448,-0.05578944459557533
1789658580572313854,1789658580575322066,0.014898800291121006,-0.03086180053651333,0.09152120351791382,0.1777694672346115,-0.2914940416812897,9.87967300415039,-0.008233540691435337,0.01530065480619669,-0.9982870817184448,-0.05578944459557533
1789658580575667089,1789658580579053175,0.014898800291121006,-0.03086180053651333,0.09152120351791382,0.1777694672346115,-0.2914940416812897,9.87967300415039,-0.008233540691435337,0.01530065480619669,-0.9982870817184448,-0.05578944459557533
