t_ns,t_bag_ns,wx,wy,wz,ax,ay,az,qx,qy,qz,qw
1789656130525441132,1789656130529720978,0.0,0.0,0.0,0.11671733111143112,-0.09576806426048279,9.895833969116211,0.0003540561883710325,-0.006980861071497202,0.8830235004425049,0.4692673981189728
1789656130539978949,1789656130543941820,0.0,0.0,0.0,0.08439560979604721,-0.14365209639072418,9.901819229125977,0.00034568581031635404,-0.008408332243561745,0.8830146193504333,0.46926096081733704
1789656130544216909,1789656130548807396,0.0,0.0,0.0,0.08439560979604721,-0.14365209639072418,9.901819229125977,0.00034568581031635404,-0.008408332243561745,0.8830146193504333,0.46926096081733704
1789656130548768048,1789656130562739643,0.0,0.0,0.0,0.12749123573303223,-0.12030863016843796,9.9185791015625,0.0022814087569713593,-0.008614114485681057,0.8830028772354126,0.4692738354206085
1789656130563166662,1789656130566424886,0.0,0.0,0.0,0.12749123573303223,-0.12030863016843796,9.9185791015625,0.0022814087569713593,-0.008614114485681057,0.8830028772354126,0.4692738354206085
1789656130567649274,1789656130570371435,0.0,0.0,0.0,0.12749123573303223,-0.12030863016843796,9.9185791015625,0.0022814087569713593,-0.008614114485681057,0.8830028772354126,0.4692738354206085
1789656130571093682,1789656130582454771,0.0,0.0,0.0,0.13587094843387604,-0.12330138683319092,9.888052940368652,0.003130898578092456,-0.00873817689716816,0.8829967975616455,0.4692780673503876
1789656130583848410,1789656130587709204,0.0,0.0,0.0,0.13587094843387604,-0.12330138683319092,9.888052940368652,0.003130898578092456,-0.00873817689716816,0.8829967975616455,0.4692780673503876
1789656130587605311,1789656130590573865,0.0,0.0,0.0,0.13587094843387604,-0.12330138683319092,9.888052940368652,0.003130898578092456,-0.00873817689716816,0.8829967975616455,0.4692780673503876
1789656130592058467,1789656130603653777,0.0,0.0,0.0,0.07781155407428741,-0.10833762586116791,9.965864181518555,0.0016480621416121721,-0.0072638955898582935,0.8830140829086304,0.4692780077457428
1789656130604521933,1789656130607653477,0.0,0.0,0.0,0.07781155407428741,-0.10833762586116791,9.965864181518555,0.0016480621416121721,-0.0072638955898582935,0.8830140829086304,0.4692780077457428
1789656130608912712,1789656130612773894,0.0,0.0,0.0,0.07781155407428741,-0.10833762586116791,9.965864181518555,0.0016480621416121721,-0.0072638955898582935,0.8830140829086304,0.4692780077457428
1789656130614369039,1789656130624721232,0.0,0.0,0.0,0.132279634475708,-0.08918400853872299,9.974244117736816,0.000982318539172411,-0.00750200729817152,0.8830158114433289,0.46927309036254883
1789656130625514358,1789656130629575749,0.0,0.0,0.0,0.132279634475708,-0.08918400853872299,9.974244117736816,0.000982318539172411,-0.00750200729817152,0.8830158114433289,0.46927309036254883
1789656130630730091,1789656130633925957,0.0,0.0,0.0,0.132279634475708,-0.08918400853872299,9.974244117736816,0.000982318539172411,-0.00750200729817152,0.8830158114433289,0.46927309036254883
1789656130635422062,1789656130644687199,0.0,0.0,0.0,0.1388636976480484,-0.11611878126859665,9.91738224029541,0.002503175288438797,-0.007201683707535267,0.8830103278160095,0.4692823588848114
1789656130644659763,1789656130647629688,0.0,0.0,0.0,0.1388636976480484,-0.11611878126859665,9.91738224029541,0.002503175288438797,-0.007201683707535267,0.8830103278160095,0.4692823588848114
1789656130648646735,1789656130651794693,0.0,0.0,0.0,0.1388636976480484,-0.11611878126859665,9.91738224029541,0.002503175288438797,-0.007201683707535267,0.8830103278160095,0.4692823588848114
1789656130652712109,1789656130665802284,0.0,0.0,0.0,0.12270283699035645,-0.11851298063993454,9.95329475402832,0.0018480769358575344,-0.007884974591434002,0.8830098509788513,0.46927547454833984
1789656130666870481,1789656130671682778,0.0,0.0,0.0,0.12270283699035645,-0.11851298063993454,9.95329475402832,0.0018480769358575344,-0.007884974591434002,0.8830098509788513,0.46927547454833984
1789656130672846716,1789656130675523081,0.0,0.0,0.0,0.12270283699035645,-0.11851298063993454,9.95329475402832,0.0018480769358575344,-0.007884974591434002,0.8830098509788513,0.46927547454833984
1789656130676473955,1789656130686616047,0.0,0.0,0.0,0.0975637212395668,-0.1149216815829277,9.984419822692871,0.0012855110689997673,-0.00838693231344223,0.8830095529556274,0.4692689776420593
1789656130688184033,1789656130693188405,0.0,0.0,0.0,0.0975637212395668,-0.1149216815829277,9.984419822692871,0.0012855110689997673,-0.00838693231344223,0.8830095529556274,0.4692689776420593
1789656130692689672,1789656130695649019,0.0,0.0,0.0,0.0975637212395668,-0.1149216815829277,9.984419822692871,0.0012855110689997673,-0.00838693231344223,0.8830095529556274,0.4692689776420593
1789656130696655006,1789656130707595597,0.0,0.0,0.0,0.1280897855758667,-0.09935937076807022,9.955090522766113,0.0010457393946126103,-0.007363149896264076,0.8830176591873169,0.4692716896533966
1789656130708706385,1789656130712828910,0.0,0.0,0.0,0.1280897855758667,-0.09935937076807022,9.955090522766113,0.0010457393946126103,-0.007363149896264076,0.8830176591873169,0.4692716896533966
1789656130713806868,1789656130716604893,0.0,0.0,0.0,0.1280897855758667,-0.09935937076807022,9.955090522766113,0.0010457393946126103,-0.007363149896264076,0.8830176591873169,0.4692716896533966
1789656130717550671,1789656130728810943,0.0,0.0,0.0,0.16639702022075653,-0.10534487664699554,9.922170639038086,0.0003274734190199524,-0.007351805455982685,0.8830206394195557,0.4692673981189728
1789656130729585025,1789656130732440553,0.0,0.0,0.0,0.16639702022075653,-0.10534487664699554,9.922170639038086,0.0003274734190199524,-0.007351805455982685,0.8830206394195557,0.4692673981189728
1789656130735552293,1789656130737452372,0.0,0.0,0.0,0.16639702022075653,-0.10534487664699554,9.922170639038086,0.0003274734190199524,-0.007351805455982685,0.8830206394195557,0.4692673981189728
1789656130740463388,1789656130751504870,0.0,0.0,0.0,0.10953472554683685,-0.1173158809542656,9.86889934539795,0.002298080362379551,-0.007962888106703758,0.8830075860023499,0.4692762792110443
1789656130750865286,1789656130754210951,0.0,0.0,0.0,0.10953472554683685,-0.1173158809542656,9.86889934539795,0.002298080362379551,-0.007962888106703758,0.8830075860023499,0.4692762792110443
1789656130755680565,1789656130759124287,0.0,0.0,0.0,0.10953472554683685,-0.1173158809542656,9.86889934539795,0.002298080362379551,-0.007962888106703758,0.8830075860023499,0.4692762792110443
1789656130760477448,1789656130770671949,0.0,0.0,0.0,0.12389993667602539,-0.07242459803819656,10.034099578857422,0.002508997218683362,-0.006449515465646982,0.8830147981643677,0.46928489208221436
1789656130771192932,1789656130774626224,0.0,0.0,0.0,0.12389993667602539,-0.07242459803819656,10.034099578857422,0.002508997218683362,-0.006449515465646982,0.8830147981643677,0.46928489208221436
1789656130775903503,1789656130779749031,0.0,0.0,0.0,0.12389993667602539,-0.07242459803819656,10.034099578857422,0.002508997218683362,-0.006449515465646982,0.8830147981643677,0.46928489208221436
1789656130781260069,1789656130790622095,0.0,0.0,0.0,0.11013327538967133,-0.12449848651885986,9.949703216552734,0.0014803665690124035,-0.007312293630093336,0.8830150961875916,0.4692760705947876
1789656130791794333,1789656130794115744,0.0,0.0,0.0,0.11013327538967133,-0.12449848651885986,9.949703216552734,0.0014803665690124035,-0.007312293630093336,0.8830150961875916,0.4692760705947876
1789656130796198117,1789656130797520933,0.0,0.0,0.0,0.11013327538967133,-0.12449848651885986,9.949703216552734,0.0014803665690124035,-0.007312293630093336,0.8830150961875916,0.4692760705947876
1789656130800473388,1789656130811945354,0.0,0.0,0.0,0.11791443079710007,-0.09277531504631042,9.88086986541748,0.0009862454608082771,-0.007853220216929913,0.8830140233039856,0.4692707061767578
1789656130813527587,1789656130817138708,0.0,0.0,0.0,0.11791443079710007,-0.09277531504631042,9.88086986541748,0.0009862454608082771,-0.007853220216929913,0.8830140233039856,0.4692707061767578
1789656130818359706,1789656130828372692,0.0,0.0,0.0,0.11791443079710007,-0.09277531504631042,9.88086986541748,0.0009862454608082771,-0.007853220216929913,0.8830140233039856,0.4692707061767578
1789656130824748528,1789656130833689427,0.0,0.0,0.0,0.13527239859104156,-0.10354921966791153,9.947907447814941,0.0025996966287493706,-0.008406929671764374,0.8830013275146484,0.4692787230014801
1789656130833048953,1789656130835534114,0.0,0.0,0.0,0.13527239859104156,-0.10354921966791153,9.947907447814941,0.0025996966287493706,-0.008406929671764374,0.8830013275146484,0.4692787230014801
1789656130837536418,1789656130839434738,0.0,0.0,0.0,0.13527239859104156,-0.10354921966791153,9.947907447814941,0.0025996966287493706,-0.008406929671764374,0.8830013275146484,0.4692787230014801
1789656130840463660,1789656130842627898,0.0,0.0,0.0,0.13527239859104156,-0.10354921966791153,9.947907447814941,0.0025996966287493706,-0.008406929671764374,0.8830013275146484,0.4692787230014801
1789656130845528704,1789656130853778312,0.0,0.0,0.0,0.12030863016843796,-0.10773907601833344,9.8970308303833,0.0019398957956582308,-0.007857542484998703,0.8830088376998901,0.4692775011062622
1789656130854128728,1789656130855640580,0.0,0.0,0.0,0.12030863016843796,-0.10773907601833344,9.8970308303833,0.0019398957956582308,-0.007857542484998703,0.8830088376998901,0.4692775011062622
1789656130856792218,1789656130858640462,0.0,0.0,0.0,0.12030863016843796,-0.10773907601833344,9.8970308303833,0.0019398957956582308,-0.007857542484998703,0.8830088376998901,0.4692775011062622
1789656130860547192,1789656130862622469,0.0,0.0,0.0,0.12030863016843796,-0.10773907601833344,9.8970308303833,0.0019398957956582308,-0.007857542484998703,0.8830088376998901,0.4692775011062622
1789656130865462399,1789656130874912701,0.0,0.0,0.0,0.15322890877723694,-0.08858545869588852,10.02452278137207,0.0018024994060397148,-0.0068734013475477695,0.8830152750015259,0.4692811369895935
1789656130875131194,1789656130876690325,0.0,0.0,0.0,0.15322890877723694,-0.08858545869588852,10.02452278137207,0.0018024994060397148,-0.0068734013475477695,0.8830152750015259,0.4692811369895935
1789656130878089522,1789656130881921119,0.0,0.0,0.0,0.15322890877723694,-0.08858545869588852,10.02452278137207,0.0018024994060397148,-0.0068734013475477695,0.8830152750015259,0.4692811369895935
1789656130882567724,1789656130898706300,0.0,0.0,0.0,0.10594342648983002,-0.14604629576206207,9.881468772888184,0.0011051135370507836,-0.00857469066977501,0.8830079436302185,0.4692692756652832
1789656130898904767,1789656130902609073,0.0,0.0,0.0,0.10594342648983002,-0.14604629576206207,9.881468772888184,0.0011051135370507836,-0.00857469066977501,0.8830079436302185,0.4692692756652832
1789656130903845169,1789656130916843512,0.0,0.0,0.0,0.10175357013940811,-0.10115502029657364,9.90241813659668,0.0008433102630078793,-0.007325323298573494,0.8830177783966064,0.4692724943161011
1789656130917819006,1789656130921148443,0.0,0.0,0.0,0.10175357013940811,-0.10115502029657364,9.90241813659668,0.0008433102630078793,-0.007325323298573494,0.8830177783966064,0.4692724943161011
1789656130921799773,1789656130926198370,0.0,0.0,0.0,0.10175357013940811,-0.10115502029657364,9.90241813659668,0.0008433102630078793,-0.007325323298573494,0.8830177783966064,0.4692724943161011
1789656130926497746,1789656130937807000,0.0,0.0,0.0,0.15741875767707825,-0.09277531504631042,9.996989250183105,0.00013778329594060779,-0.007327668834477663,0.8830204010009766,0.46926817297935486
1789656130939707246,1789656130941565031,0.0,0.0,0.0,0.15741875767707825,-0.09277531504631042,9.996989250183105,0.00013778329594060779,-0.007327668834477663,0.8830204010009766,0.46926817297935486
1789656130942430667,1789656130943718006,0.0,0.0,0.0,0.15741875767707825,-0.09277531504631042,9.996989250183105,0.00013778329594060779,-0.007327668834477663,0.8830204010009766,0.46926817297935486
1789656130945519880,1789656130957919544,0.0,0.0,0.0,0.11372458189725876,-0.1364694982767105,9.885658264160156,0.0008818456553854048,-0.006648908834904432,0.883021891117096,0.46927452087402344
1789656130958299211,1789656130962249929,0.0,0.0,0.0,0.11372458189725876,-0.1364694982767105,9.885658264160156,0.0008818456553854048,-0.006648908834904432,0.883021891117096,0.46927452087402344
1789656130962202058,1789656130965389457,0.0,0.0,0.0,0.11372458189725876,-0.1364694982767105,9.885658264160156,0.0008818456553854048,-0.006648908834904432,0.883021891117096,0.46927452087402344
1789656130965665658,1789656130968551402,0.0,0.0,0.0,0.11372458189725876,-0.1364694982767105,9.885658264160156,0.0008818456553854048,-0.006648908834904432,0.883021891117096,0.46927452087402344
1789656130970542239,1789656130978758946,0.0,0.0,0.0,0.15682020783424377,-0.09277531504631042,10.001777648925781,0.0026375818997621536,-0.007600574754178524,0.8830078840255737,0.469279944896698
1789656130979305661,1789656130982338018,0.0,0.0,0.0,0.15682020783424377,-0.09277531504631042,10.001777648925781,0.0026375818997621536,-0.007600574754178524,0.8830078840255737,0.469279944896698
1789656130982621685,1789656130986522531,0.0,0.0,0.0,0.15682020783424377,-0.09277531504631042,10.001777648925781,0.0026375818997621536,-0.007600574754178524,0.8830078840255737,0.469279944896698
1789656130987069486,1789656130999900689,0.0,0.0,0.0,0.10534487664699554,-0.11611878126859665,9.98801040649414,0.0018254132010042667,-0.0078002032823860645,0.8830115795135498,0.4692738354206085
1789656131000564802,1789656131002754995,0.0,0.0,0.0,0.10534487664699554,-0.11611878126859665,9.98801040649414,0.0018254132010042667,-0.0078002032823860645,0.8830115795135498,0.4692738354206085
1789656131005624733,1789656131008726446,0.0,0.0,0.0,0.10534487664699554,-0.11611878126859665,9.98801040649414,0.0018254132010042667,-0.0078002032823860645,0.8830115795135498,0.4692738354206085
1789656131010525091,1789656131021618080,0.0,0.0,0.0,0.10773907601833344,-0.08140285313129425,9.871891975402832,0.001009186147712171,-0.007661264855414629,0.8830165266990662,0.4692690670490265
1789656131021092357,1789656131024146695,0.0,0.0,0.0,0.10773907601833344,-0.08140285313129425,9.871891975402832,0.001009186147712171,-0.007661264855414629,0.8830165266990662,0.4692690670490265
1789656131025580272,1789656131028513285,0.0,0.0,0.0,0.10773907601833344,-0.08140285313129425,9.871891975402832,0.001009186147712171,-0.007661264855414629,0.8830165266990662,0.4692690670490265
1789656131030883468,1789656131041796442,0.0,0.0,0.0,0.06224924325942993,-0.13946224749088287,10.013150215148926,0.001707569812424481,-0.007533231750130653,0.8830140233039856,0.46927398443222046
1789656131041888329,1789656131044672266,0.0,0.0,0.0,0.06224924325942993,-0.13946224749088287,10.013150215148926,0.001707569812424481,-0.007533231750130653,0.8830140233039856,0.46927398443222046
1789656131045696221,1789656131049003620,0.0,0.0,0.0,0.06224924325942993,-0.13946224749088287,10.013150215148926,0.001707569812424481,-0.007533231750130653,0.8830140233039856,0.46927398443222046
1789656131051039895,1789656131063981160,0.0,0.0,0.0,0.08918400853872299,-0.11252747476100922,9.852738380432129,0.0011812008451670408,-0.0070712813176214695,0.8830190896987915,0.46927300095558167
1789656131063386706,1789656131067428077,0.0,0.0,0.0,0.08918400853872299,-0.11252747476100922,9.852738380432129,0.0011812008451670408,-0.0070712813176214695,0.8830190896987915,0.46927300095558167
1789656131067605183,1789656131070287265,0.0,0.0,0.0,0.08918400853872299,-0.11252747476100922,9.852738380432129,0.0011812008451670408,-0.0070712813176214695,0.8830190896987915,0.46927300095558167
1789656131070493123,1789656131084496931,0.0,0.0,0.0,0.11671733111143112,-0.12928688526153564,9.847949981689453,0.0006013658130541444,-0.00797617994248867,0.8830156326293945,0.4692661166191101
1789656131085323790,1789656131091881419,0.0,0.0,0.0,0.11671733111143112,-0.12928688526153564,9.847949981689453,0.0006013658130541444,-0.00797617994248867,0.8830156326293945,0.4692661166191101
1789656131088608440,1789656131092636676,0.0,0.0,0.0,0.11671733111143112,-0.12928688526153564,9.847949981689453,0.0006013658130541444,-0.00797617994248867,0.8830156326293945,0.4692661166191101
1789656131091432596,1789656131104333011,0.0,0.0,0.0,0.06643909960985184,-0.13527239859104156,9.91977596282959,0.0010409837123006582,-0.008532995358109474,0.8830099105834961,0.46926653385162354
1789656131104568084,1789656131106572050,0.0,0.0,0.0,0.06643909960985184,-0.13527239859104156,9.91977596282959,0.0010409837123006582,-0.008532995358109474,0.8830099105834961,0.46926653385162354
1789656131107460452,1789656131111685894,0.0,0.0,0.0,0.06643909960985184,-0.13527239859104156,9.91977596282959,0.0010409837123006582,-0.008532995358109474,0.8830099105834961,0.46926653385162354
1789656131111941142,1789656131126083726,0.0,0.0,0.0,0.08259996026754379,-0.09397241473197937,9.817423820495605,0.0012965418864041567,-0.006529887672513723,0.8830211162567139,0.4692767560482025
1789656131127939597,1789656131129680535,0.0,0.0,0.0,0.08259996026754379,-0.09397241473197937,9.817423820495605,0.0012965418864041567,-0.006529887672513723,0.8830211162567139,0.4692767560482025
1789656131131965221,1789656131133665439,0.0,0.0,0.0,0.08259996026754379,-0.09397241473197937,9.817423820495605,0.0012965418864041567,-0.006529887672513723,0.8830211162567139,0.4692767560482025
1789656131135623906,1789656131146509388,0.0,0.0,0.0,0.11192892491817474,-0.0975637212395668,10.005967140197754,0.0019117820775136352,-0.0074956705793738365,0.883012592792511,0.4692762494087219
1789656131146104953,1789656131147809932,0.0,0.0,0.0,0.11192892491817474,-0.0975637212395668,10.005967140197754,0.0019117820775136352,-0.0074956705793738365,0.883012592792511,0.4692762494087219
1789656131150606892,1789656131153672401,0.0,0.0,0.0,0.11192892491817474,-0.0975637212395668,10.005967140197754,0.0019117820775136352,-0.0074956705793738365,0.883012592792511,0.4692762494087219
1789656131155658101,1789656131167415145,0.0,0.0,0.0,0.0975637212395668,-0.0694318488240242,9.913790702819824,0.002451858948916197,-0.0056296344846487045,0.8830191493034363,0.4692875146865845
1789656131166955854,1789656131168903169,0.0,0.0,0.0,0.0975637212395668,-0.0694318488240242,9.913790702819824,0.002451858948916197,-0.0056296344846487045,0.8830191493034363,0.4692875146865845
1789656131170604165,1789656131173808543,0.0,0.0,0.0,0.0975637212395668,-0.0694318488240242,9.913790702819824,0.002451858948916197,-0.0056296344846487045,0.8830191493034363,0.4692875146865845
1789656131175622824,1789656131188088551,0.0,0.0,0.0,0.09876082092523575,-0.07781155407428741,9.923965454101562,0.0020034010522067547,-0.006178312469273806,0.883018970489502,0.46928322315216064
1789656131188795493,1789656131191995129,0.0,0.0,0.0,0.09876082092523575,-0.07781155407428741,9.923965454101562,0.0020034010522067547,-0.006178312469273806,0.883018970489502,0.46928322315216064
1789656131193687788,1789656131198359886,0.0,0.0,0.0,0.09876082092523575,-0.07781155407428741,9.923965454101562,0.0020034010522067547,-0.006178312469273806,0.883018970489502,0.46928322315216064
1789656131199138393,1789656131208824927,0.0,0.0,0.0,0.10534487664699554,-0.132279634475708,9.930549621582031,0.0015349079621955752,-0.00813977885991335,0.8830102682113647,0.46927136182785034
1789656131209599636,1789656131213009353,0.0,0.0,0.0,0.10534487664699554,-0.132279634475708,9.930549621582031,0.0015349079621955752,-0.00813977885991335,0.8830102682113647,0.46927136182785034
1789656131213696862,1789656131216276441,0.0,0.0,0.0,0.10534487664699554,-0.132279634475708,9.930549621582031,0.0015349079621955752,-0.00813977885991335,0.8830102682113647,0.46927136182785034
1789656131217008504,1789656131229932354,0.0,0.0,0.0,0.11971008032560349,-0.07541735470294952,9.875483512878418,0.0008907373412512243,-0.007320702075958252,0.8830187320709229,0.4692705273628235
1789656131230528086,1789656131234074061,0.0,0.0,0.0,0.11971008032560349,-0.07541735470294952,9.875483512878418,0.0008907373412512243,-0.007320702075958252,0.8830187320709229,0.4692705273628235
1789656131235790248,1789656131238782988,0.0,0.0,0.0,0.11971008032560349,-0.07541735470294952,9.875483512878418,0.0008907373412512243,-0.007320702075958252,0.8830187320709229,0.4692705273628235
1789656131240617647,1789656131250024683,0.0,0.0,0.0,0.07661445438861847,-0.08559270948171616,9.906009674072266,0.0009212216828018427,-0.008027794770896435,0.8830140233039856,0.46926766633987427
1789656131250179298,1789656131253089618,0.0,0.0,0.0,0.07661445438861847,-0.08559270948171616,9.906009674072266,0.0009212216828018427,-0.008027794770896435,0.8830140233039856,0.46926766633987427
1789656131254321542,1789656131257502467,0.0,0.0,0.0,0.07661445438861847,-0.08559270948171616,9.906009674072266,0.0009212216828018427,-0.008027794770896435,0.8830140233039856,0.46926766633987427
1789656131257992176,1789656131271422371,0.0,0.0,0.0,0.10833762586116791,-0.10893617570400238,9.8599214553833,0.0011997001711279154,-0.006964359898120165,0.883019745349884,0.46927350759506226
1789656131271603257,1789656131275462520,0.0,0.0,0.0,0.10833762586116791,-0.10893617570400238,9.8599214553833,0.0011997001711279154,-0.006964359898120165,0.883019745349884,0.46927350759506226
1789656131275662486,1789656131278733887,0.0,0.0,0.0,0.10833762586116791,-0.10893617570400238,9.8599214553833,0.0011997001711279154,-0.006964359898120165,0.883019745349884,0.46927350759506226
1789656131280743021,1789656131292132089,0.0,0.0,0.0,0.10773907601833344,-0.09696516394615173,9.833584785461426,0.0021912269294261932,-0.007562447804957628,0.8830110430717468,0.4692768156528473
1789656131292062191,1789656131293760445,0.0,0.0,0.0,0.10773907601833344,-0.09696516394615173,9.833584785461426,0.0021912269294261932,-0.007562447804957628,0.8830110430717468,0.4692768156528473
1789656131295656777,1789656131298887183,0.0,0.0,0.0,0.10773907601833344,-0.09696516394615173,9.833584785461426,0.0021912269294261932,-0.007562447804957628,0.8830110430717468,0.4692768156528473
1789656131300681012,1789656131312984472,0.0,0.0,0.0,0.06344634294509888,-0.10714052617549896,9.982025146484375,0.0016661230474710464,-0.008363155648112297,0.8830093741416931,0.46926870942115784
1789656131313067671,1789656131314796086,0.0,0.0,0.0,0.06344634294509888,-0.10714052617549896,9.982025146484375,0.0016661230474710464,-0.008363155648112297,0.8830093741416931,0.46926870942115784
1789656131315848329,1789656131317972675,0.0,0.0,0.0,0.06344634294509888,-0.10714052617549896,9.982025146484375,0.0016661230474710464,-0.008363155648112297,0.8830093741416931,0.46926870942115784
1789656131320842386,1789656131334544261,0.0,0.0,0.0,0.11611878126859665,-0.09157821536064148,9.788094520568848,0.001634481130167842,-0.007089696824550629,0.8830176591873169,0.4692741930484772
1789656131334129896,1789656131336311802,0.0,0.0,0.0,0.11611878126859665,-0.09157821536064148,9.788094520568848,0.001634481130167842,-0.007089696824550629,0.8830176591873169,0.4692741930484772
1789656131337939603,1789656131340811462,0.0,0.0,0.0,0.11611878126859665,-0.09157821536064148,9.788094520568848,0.001634481130167842,-0.007089696824550629,0.8830176591873169,0.4692741930484772
1789656131341544859,1789656131355957049,0.0,0.0,0.0,0.02753331884741783,-0.0999579206109047,9.996989250183105,0.0022857175208628178,-0.007344766985625029,0.8830128908157349,0.4692765176296234
1789656131356732221,1789656131358903604,0.0,0.0,0.0,0.02753331884741783,-0.0999579206109047,9.996989250183105,0.0022857175208628178,-0.007344766985625029,0.8830128908157349,0.4692765176296234
1789656131360696136,1789656131364046552,0.0,0.0,0.0,0.02753331884741783,-0.0999579206109047,9.996989250183105,0.0022857175208628178,-0.007344766985625029,0.8830128908157349,0.4692765176296234
1789656131365710126,1789656131376370391,0.0,0.0,0.0,0.104147769510746,-0.07062894850969315,9.78869342803955,0.001683949725702405,-0.006356402300298214,0.883021354675293,0.46927765011787415
1789656131376414334,1789656131380242196,0.0,0.0,0.0,0.104147769510746,-0.07062894850969315,9.78869342803955,0.001683949725702405,-0.006356402300298214,0.883021354675293,0.46927765011787415
1789656131381982615,1789656131385002180,0.0,0.0,0.0,0.104147769510746,-0.07062894850969315,9.78869342803955,0.001683949725702405,-0.006356402300298214,0.883021354675293,0.46927765011787415
1789656131386395982,1789656131396988757,0.0,0.0,0.0,0.12330138683319092,-0.09277531504631042,9.752182006835938,0.0014035950880497694,-0.007309991866350174,0.8830171823501587,0.46927231550216675
1789656131397395138,1789656131400840517,0.0,0.0,0.0,0.12330138683319092,-0.09277531504631042,9.752182006835938,0.0014035950880497694,-0.007309991866350174,0.8830171823501587,0.46927231550216675
1789656131401631474,1789656131405814011,0.0,0.0,0.0,0.12330138683319092,-0.09277531504631042,9.752182006835938,0.0014035950880497694,-0.007309991866350174,0.8830171823501587,0.46927231550216675
1789656131406563062,1789656131417170713,0.0,0.0,0.0,0.07422025501728058,-0.10474631935358047,9.876680374145508,0.002140127355232835,-0.007441035937517881,0.8830127120018005,0.4692760705947876
1789656131418006224,1789656131423581137,0.0,0.0,0.0,0.07422025501728058,-0.10474631935358047,9.876680374145508,0.002140127355232835,-0.007441035937517881,0.8830127120018005,0.4692760705947876
1789656131422873250,1789656131427395697,0.0,0.0,0.0,0.07422025501728058,-0.10474631935358047,9.876680374145508,0.002140127355232835,-0.007441035937517881,0.8830127120018005,0.4692760705947876
1789656131426958193,1789656131439445207,0.0,0.0,0.0,0.08499415963888168,-0.05985504016280174,9.787496566772461,0.00121134496293962,-0.006425682455301285,0.8830229640007019,0.4692750871181488
1789656131443074658,1789656131445073992,0.0,0.0,0.0,0.08499415963888168,-0.05985504016280174,9.787496566772461,0.00121134496293962,-0.006425682455301285,0.8830229640007019,0.4692750871181488
1789656131446541045,1789656131459182360,0.0,0.0,0.0,0.1107318252325058,-0.08259996026754379,9.901819229125977,0.00285942479968071,-0.0064798807725310326,0.8830143213272095,0.46928346157073975
1789656131459783890,1789656131464434221,0.0,0.0,0.0,0.1107318252325058,-0.08259996026754379,9.901819229125977,0.00285942479968071,-0.0064798807725310326,0.8830143213272095,0.46928346157073975
1789656131465206670,1789656131468130939,0.0,0.0,0.0,0.1107318252325058,-0.08259996026754379,9.901819229125977,0.00285942479968071,-0.0064798807725310326,0.8830143213272095,0.46928346157073975
1789656131468739139,1789656131480182134,0.0,0.0,0.0,0.12928688526153564,-0.07422025501728058,9.935338020324707,0.00311183906160295,-0.0055722869001328945,0.8830167651176453,0.4692888855934143
1789656131480936724,1789656131484915163,0.0,0.0,0.0,0.12928688526153564,-0.07422025501728058,9.935338020324707,0.00311183906160295,-0.0055722869001328945,0.8830167651176453,0.4692888855934143
1789656131486576607,1789656131490025266,0.0,0.0,0.0,0.12928688526153564,-0.07422025501728058,9.935338020324707,0.00311183906160295,-0.0055722869001328945,0.8830167651176453,0.4692888855934143
1789656131490900495,1789656131500979404,0.0,0.0,0.0,0.10115502029657364,-0.08858545869588852,9.917980194091797,0.0026886011473834515,-0.006223395466804504,0.8830163478851318,0.4692840874195099
1789656131501343416,1789656131503023849,0.0,0.0,0.0,0.10115502029657364,-0.08858545869588852,9.917980194091797,0.0026886011473834515,-0.006223395466804504,0.8830163478851318,0.4692840874195099
1789656131505728958,1789656131507964144,0.0,0.0,0.0,0.10115502029657364,-0.08858545869588852,9.917980194091797,0.0026886011473834515,-0.006223395466804504,0.8830163478851318,0.4692840874195099
1789656131510757806,1789656131522156581,0.0,0.0,0.0,0.13168108463287354,-0.15322890877723694,9.923965454101562,0.00250456971116364,-0.008305673487484455,0.8830066323280334,0.469271183013916
1789656131522276424,1789656131527515224,0.0,0.0,0.0,0.13168108463287354,-0.15322890877723694,9.923965454101562,0.00250456971116364,-0.008305673487484455,0.8830066323280334,0.469271183013916
1789656131526940519,1789656131531695723,0.0,0.0,0.0,0.13168108463287354,-0.15322890877723694,9.923965454101562,0.00250456971116364,-0.008305673487484455,0.8830066323280334,0.469271183013916
1789656131542167748,1789656131545808259,0.0,0.0,0.0,0.11611878126859665,-0.09876082092523575,9.815030097961426,0.0029004153329879045,-0.007236654404550791,0.8830105066299438,0.46927914023399353
1789656131546677172,1789656131549907152,0.0,0.0,0.0,0.11611878126859665,-0.09876082092523575,9.815030097961426,0.0029004153329879045,-0.007236654404550791,0.8830105066299438,0.46927914023399353
1789656131550985406,1789656131563905884,0.0,0.0,0.0,0.07302314788103104,-0.12090718746185303,9.885658264160156,0.0008536417153663933,-0.00704228738322854,0.8830217123031616,0.46926942467689514
1789656131563294850,1789656131566266786,0.0,0.0,0.0,0.07302314788103104,-0.12090718746185303,9.885658264160156,0.0008536417153663933,-0.00704228738322854,0.8830217123031616,0.46926942467689514
1789656131566721259,1789656131570495804,0.0,0.0,0.0,0.07302314788103104,-0.12090718746185303,9.885658264160156,0.0008536417153663933,-0.00704228738322854,0.8830217123031616,0.46926942467689514
1789656131570693232,1789656131573079810,0.0,0.0,0.0,0.07302314788103104,-0.12090718746185303,9.885658264160156,0.0008536417153663933,-0.00704228738322854,0.8830217123031616,0.46926942467689514
1789656131575781252,1789656131584538627,0.0,0.0,0.0,0.10773907601833344,-0.0999579206109047,9.819219589233398,0.002637623343616724,-0.007302126381546259,0.8830119371414185,0.46927720308303833
1789656131584467766,1789656131587830039,0.0,0.0,0.0,0.10773907601833344,-0.0999579206109047,9.819219589233398,0.002637623343616724,-0.007302126381546259,0.8830119371414185,0.46927720308303833
1789656131588200813,1789656131592077601,0.0,0.0,0.0,0.10773907601833344,-0.0999579206109047,9.819219589233398,0.002637623343616724,-0.007302126381546259,0.8830119371414185,0.46927720308303833
1789656131593368734,1789656131605344752,0.0,0.0,0.0,0.18495208024978638,-0.1149216815829277,9.817423820495605,0.004227417055517435,-0.007257457356899977,0.8830024003982544,0.4692842662334442
1789656131605953396,1789656131610941062,0.0,0.0,0.0,0.18495208024978638,-0.1149216815829277,9.817423820495605,0.004227417055517435,-0.007257457356899977,0.8830024003982544,0.4692842662334442
1789656131610835021,1789656131614266561,0.0,0.0,0.0,0.18495208024978638,-0.1149216815829277,9.817423820495605,0.004227417055517435,-0.007257457356899977,0.8830024003982544,0.4692842662334442
1789656131615907645,1789656131626141818,0.0,0.0,0.0,0.07541735470294952,-0.11791443079710007,9.841365814208984,0.004104251973330975,-0.008314319886267185,0.8829983472824097,0.46927523612976074
1789656131626254250,1789656131628925495,0.0,0.0,0.0,0.07541735470294952,-0.11791443079710007,9.841365814208984,0.004104251973330975,-0.008314319886267185,0.8829983472824097,0.46927523612976074
1789656131631053546,1789656131633158959,0.0,0.0,0.0,0.07541735470294952,-0.11791443079710007,9.841365814208984,0.004104251973330975,-0.008314319886267185,0.8829983472824097,0.46927523612976074
1789656131635786779,1789656131647190426,0.0,0.0,0.0,0.1412578970193863,-0.050876785069704056,9.810839653015137,0.00350197684019804,-0.007050189655274153,0.8830093145370483,0.4692802131175995
1789656131647287908,1789656131649354325,0.0,0.0,0.0,0.1412578970193863,-0.050876785069704056,9.810839653015137,0.00350197684019804,-0.007050189655274153,0.8830093145370483,0.4692802131175995
1789656131650878029,1789656131654087447,0.0,0.0,0.0,0.1412578970193863,-0.050876785069704056,9.810839653015137,0.00350197684019804,-0.007050189655274153,0.8830093145370483,0.4692802131175995
1789656131655826865,1789656131668634670,0.0,0.0,0.0,0.05446808785200119,-0.10175357013940811,9.95449161529541,0.002527819713577628,-0.007918220944702625,0.8830112814903259,0.4692690372467041
1789656131668159374,1789656131671436688,0.0,0.0,0.0,0.05446808785200119,-0.10175357013940811,9.95449161529541,0.002527819713577628,-0.007918220944702625,0.8830112814903259,0.4692690372467041
1789656131671615128,1789656131675690215,0.0,0.0,0.0,0.05446808785200119,-0.10175357013940811,9.95449161529541,0.002527819713577628,-0.007918220944702625,0.8830112814903259,0.4692690372467041
1789656131675878363,1789656131688327602,0.0,0.0,0.0,0.11372458189725876,-0.13168108463287354,9.888052940368652,0.001614136272110045,-0.007878916338086128,0.8830162286758423,0.46926426887512207
1789656131689789968,1789656131693273196,0.0,0.0,0.0,0.11372458189725876,-0.13168108463287354,9.888052940368652,0.001614136272110045,-0.007878916338086128,0.8830162286758423,0.46926426887512207
1789656131695198575,1789656131698225366,0.0,0.0,0.0,0.11372458189725876,-0.13168108463287354,9.888052940368652,0.001614136272110045,-0.007878916338086128,0.8830162286758423,0.46926426887512207
1789656131698812798,1789656131709104197,0.0,0.0,0.0,0.12868833541870117,-0.08798690885305405,9.75278091430664,0.003356746630743146,-0.007600780110806227,0.883007287979126,0.4692765474319458
1789656131710352294,1789656131714231750,0.0,0.0,0.0,0.12868833541870117,-0.08798690885305405,9.75278091430664,0.003356746630743146,-0.007600780110806227,0.883007287979126,0.4692765474319458
1789656131715508470,1789656131719391613,0.0,0.0,0.0,0.12868833541870117,-0.08798690885305405,9.75278091430664,0.003356746630743146,-0.007600780110806227,0.883007287979126,0.4692765474319458
1789656131720253615,1789656131730649554,0.0,0.0,0.0,0.07960720360279083,-0.07422025501728058,9.798869132995605,0.0021834776271134615,-0.007818471640348434,0.8830136060714722,0.4692680537700653
1789656131730830069,1789656131733402127,0.0,0.0,0.0,0.07960720360279083,-0.07422025501728058,9.798869132995605,0.0021834776271134615,-0.007818471640348434,0.8830136060714722,0.4692680537700653
1789656131735892153,1789656131739427938,0.0,0.0,0.0,0.07960720360279083,-0.07422025501728058,9.798869132995605,0.0021834776271134615,-0.007818471640348434,0.8830136060714722,0.4692680537700653
1789656131740851307,1789656131752304084,0.0,0.0,0.0,0.10594342648983002,-0.1107318252325058,9.865906715393066,0.0014599047135561705,-0.007976210676133633,0.8830165863037109,0.46926259994506836
1789656131752398695,1789656131756835535,0.0,0.0,0.0,0.10594342648983002,-0.1107318252325058,9.865906715393066,0.0014599047135561705,-0.007976210676133633,0.8830165863037109,0.46926259994506836
1789656131756974330,1789656131760906102,0.0,0.0,0.0,0.10594342648983002,-0.1107318252325058,9.865906715393066,0.0014599047135561705,-0.007976210676133633,0.8830165863037109,0.46926259994506836
1789656131761047824,1789656131773213490,0.0,0.0,0.0,0.07481880486011505,-0.10953472554683685,9.845555305480957,0.001897993846796453,-0.008541012182831764,0.8830105066299438,0.4692624509334564
1789656131772860667,1789656131777261938,0.0,0.0,0.0,0.07481880486011505,-0.10953472554683685,9.845555305480957,0.001897993846796453,-0.008541012182831764,0.8830105066299438,0.4692624509334564
1789656131777881457,1789656131781322927,0.0,0.0,0.0,0.07481880486011505,-0.10953472554683685,9.845555305480957,0.001897993846796453,-0.008541012182831764,0.8830105066299438,0.4692624509334564
1789656131782375004,1789656131793938194,0.0,0.0,0.0,0.10654197633266449,-0.1454477459192276,9.892841339111328,0.00246995547786355,-0.008124982006847858,0.8830098509788513,0.4692685008049011
1789656131794746806,1789656131797646454,0.0,0.0,0.0,0.10654197633266449,-0.1454477459192276,9.892841339111328,0.00246995547786355,-0.008124982006847858,0.8830098509788513,0.4692685008049011
1789656131798215528,1789656131800020157,0.0,0.0,0.0,0.10654197633266449,-0.1454477459192276,9.892841339111328,0.00246995547786355,-0.008124982006847858,0.8830098509788513,0.4692685008049011
1789656131801002891,1789656131814435569,0.0,0.0,0.0,0.10654197633266449,-0.0999579206109047,9.800065994262695,0.002008188981562853,-0.007149842102080584,0.8830182552337646,0.46927064657211304
1789656131815107683,1789656131819003497,0.0,0.0,0.0,0.10654197633266449,-0.0999579206109047,9.800065994262695,0.002008188981562853,-0.007149842102080584,0.8830182552337646,0.46927064657211304
1789656131819039493,1789656131824325923,0.0,0.0,0.0,0.10654197633266449,-0.0999579206109047,9.800065994262695,0.002008188981562853,-0.007149842102080584,0.8830182552337646,0.46927064657211304
1789656131826280277,1789656131834532529,0.0,0.0,0.0,0.047884032130241394,-0.11432313174009323,9.928753852844238,0.002052983734756708,-0.008002550341188908,0.8830133080482483,0.469265878200531
1789656131837143232,1789656131839838226,0.0,0.0,0.0,0.047884032130241394,-0.11432313174009323,9.928753852844238,0.002052983734756708,-0.008002550341188908,0.8830133080482483,0.469265878200531
1789656131840725220,1789656131844627110,0.0,0.0,0.0,0.047884032130241394,-0.11432313174009323,9.928753852844238,0.002052983734756708,-0.008002550341188908,0.8830133080482483,0.469265878200531
1789656131845939381,1789656131856151990,0.0,0.0,0.0,0.07781155407428741,-0.09038111567497253,9.851541519165039,0.0008728515240363777,-0.007613706402480602,0.8830220699310303,0.4692597985267639
1789656131855489157,1789656131858857618,0.0,0.0,0.0,0.07781155407428741,-0.09038111567497253,9.851541519165039,0.0008728515240363777,-0.007613706402480602,0.8830220699310303,0.4692597985267639
1789656131859158161,1789656131862392884,0.0,0.0,0.0,0.07781155407428741,-0.09038111567497253,9.851541519165039,0.0008728515240363777,-0.007613706402480602,0.8830220699310303,0.4692597985267639
1789656131863478826,1789656131877432244,0.0,0.0,0.0,0.05686229094862938,-0.11911153048276901,9.907805442810059,0.0014593114610761404,-0.008005843497812748,0.8830167651176453,0.4692617356777191
1789656131877134072,1789656131882054248,0.0,0.0,0.0,0.05686229094862938,-0.11911153048276901,9.907805442810059,0.0014593114610761404,-0.008005843497812748,0.8830167651176453,0.4692617356777191
1789656131882424985,1789656131885732107,0.0,0.0,0.0,0.05686229094862938,-0.11911153048276901,9.907805442810059,0.0014593114610761404,-0.008005843497812748,0.8830167651176453,0.4692617356777191
1789656131886228838,1789656131897184643,0.0,0.0,0.0,0.05985504016280174,-0.08259996026754379,9.80724811553955,0.0006046477938070893,-0.008394841104745865,0.8830184936523438,0.4692535698413849
1789656131898024804,1789656131902970435,0.0,0.0,0.0,0.05985504016280174,-0.08259996026754379,9.80724811553955,0.0006046477938070893,-0.008394841104745865,0.8830184936523438,0.4692535698413849
1789656131903944370,1789656131906075552,0.0,0.0,0.0,0.05985504016280174,-0.08259996026754379,9.80724811553955,0.0006046477938070893,-0.008394841104745865,0.8830184936523438,0.4692535698413849
1789656131906855004,1789656131918597431,0.0,0.0,0.0,0.1604115068912506,-0.09636661410331726,9.808445930480957,0.002597253071144223,-0.007961926981806755,0.883010983467102,0.4692683219909668
1789656131919310894,1789656131924582522,0.0,0.0,0.0,0.1604115068912506,-0.09636661410331726,9.808445930480957,0.002597253071144223,-0.007961926981806755,0.883010983467102,0.4692683219909668
1789656131924286166,1789656131927662778,0.0,0.0,0.0,0.1604115068912506,-0.09636661410331726,9.808445930480957,0.002597253071144223,-0.007961926981806755,0.883010983467102,0.4692683219909668
1789656131928923009,1789656131939620603,0.0,0.0,0.0,0.1215057373046875,-0.11432313174009323,9.853337287902832,0.0032935019116848707,-0.007821131497621536,0.8830074667930603,0.46927306056022644
1789656131941369099,1789656131943144291,0.0,0.0,0.0,0.1215057373046875,-0.11432313174009323,9.853337287902832,0.0032935019116848707,-0.007821131497621536,0.8830074667930603,0.46927306056022644
1789656131945994012,1789656131948383184,0.0,0.0,0.0,0.1215057373046875,-0.11432313174009323,9.853337287902832,0.0032935019116848707,-0.007821131497621536,0.8830074667930603,0.46927306056022644
1789656131950937198,1789656131960408906,0.0,0.0,0.0,0.10833762586116791,-0.1173158809542656,9.767744064331055,0.0021011782810091972,-0.007711977697908878,0.8830156326293945,0.4692663550376892
1789656131960337101,1789656131963168333,0.0,0.0,0.0,0.10833762586116791,-0.1173158809542656,9.767744064331055,0.0021011782810091972,-0.007711977697908878,0.8830156326293945,0.4692663550376892
1789656131963648835,1789656131967550355,0.0,0.0,0.0,0.10833762586116791,-0.1173158809542656,9.767744064331055,0.0021011782810091972,-0.007711977697908878,0.8830156326293945,0.4692663550376892
1789656131968333012,1789656131981848982,0.0,0.0,0.0,0.060453593730926514,-0.08140285313129425,9.781511306762695,0.0030005285516381264,-0.007353649474680424,0.883012056350708,0.4692739248275757
1789656131982372334,1789656131987424191,0.0,0.0,0.0,0.060453593730926514,-0.08140285313129425,9.781511306762695,0.0030005285516381264,-0.007353649474680424,0.883012056350708,0.4692739248275757
1789656131987401053,1789656131992141826,0.0,0.0,0.0,0.060453593730926514,-0.08140285313129425,9.781511306762695,0.0030005285516381264,-0.007353649474680424,0.883012056350708,0.4692739248275757
1789656131991060571,1789656132002016006,0.0,0.0,0.0,0.07661445438861847,-0.104147769510746,9.847949981689453,0.0033053820952773094,-0.006401532795280218,0.8830142617225647,0.4692816138267517
1789656132002058708,1789656132004135978,0.0,0.0,0.0,0.07661445438861847,-0.104147769510746,9.847949981689453,0.0033053820952773094,-0.006401532795280218,0.8830142617225647,0.4692816138267517
1789656132005912258,1789656132008109237,0.0,0.0,0.0,0.07661445438861847,-0.104147769510746,9.847949981689453,0.0033053820952773094,-0.006401532795280218,0.8830142617225647,0.4692816138267517
1789656132010932403,1789656132022526812,0.0,0.0,0.0,0.16340425610542297,-0.09816227108240128,9.771934509277344,0.0034728101454675198,-0.007902460172772408,0.8830057382583618,0.46927374601364136
1789656132022621979,1789656132026184894,0.0,0.0,0.0,0.16340425610542297,-0.09816227108240128,9.771934509277344,0.0034728101454675198,-0.007902460172772408,0.8830057382583618,0.46927374601364136
1789656132026351551,1789656132031145256,0.0,0.0,0.0,0.16340425610542297,-0.09816227108240128,9.771934509277344,0.0034728101454675198,-0.007902460172772408,0.8830057382583618,0.46927374601364136
1789656132043619395,1789656132045372796,0.0,0.0,0.0,0.10654197633266449,-0.09038111567497253,9.838373184204102,0.0036007845774292946,-0.008599082939326763,0.8830009698867798,0.46926945447921753
1789656132046686896,1789656132050759342,0.0,0.0,0.0,0.10654197633266449,-0.09038111567497253,9.838373184204102,0.0036007845774292946,-0.008599082939326763,0.8830009698867798,0.46926945447921753
1789656132051555261,1789656132064379813,0.0,0.0,0.0,0.10773907601833344,-0.10594342648983002,9.852738380432129,0.004254001658409834,-0.007945033721625805,0.8829994201660156,0.4692782759666443
1789656132065182605,1789656132070184891,0.0,0.0,0.0,0.10773907601833344,-0.10594342648983002,9.852738380432129,0.004254001658409834,-0.007945033721625805,0.8829994201660156,0.4692782759666443
1789656132070857948,1789656132073110041,0.0,0.0,0.0,0.10773907601833344,-0.10594342648983002,9.852738380432129,0.004254001658409834,-0.007945033721625805,0.8829994201660156,0.4692782759666443
1789656132075980577,1789656132085754672,0.0,0.0,0.0,0.12449848651885986,-0.08559270948171616,9.809642791748047,0.0034698352683335543,-0.006914611905813217,0.88301020860672,0.4692809283733368
1789656132085836166,1789656132087268368,0.0,0.0,0.0,0.12449848651885986,-0.08559270948171616,9.809642791748047,0.0034698352683335543,-0.006914611905813217,0.88301020860672,0.4692809283733368
1789656132091021282,1789656132094550166,0.0,0.0,0.0,0.12449848651885986,-0.08559270948171616,9.809642791748047,0.0034698352683335543,-0.006914611905813217,0.88301020860672,0.4692809283733368
1789656132096232798,1789656132106369736,0.0,0.0,0.0,0.10534487664699554,-0.07900865375995636,9.907805442810059,0.002795984735712409,-0.006046108901500702,0.8830174207687378,0.46928372979164124
1789656132106325571,1789656132108151222,0.0,0.0,0.0,0.10534487664699554,-0.07900865375995636,9.907805442810059,0.002795984735712409,-0.006046108901500702,0.8830174207687378,0.46928372979164124
1789656132110946284,1789656132113338524,0.0,0.0,0.0,0.10534487664699554,-0.07900865375995636,9.907805442810059,0.002795984735712409,-0.006046108901500702,0.8830174207687378,0.46928372979164124
1789656132115978638,1789656132127477158,0.0,0.0,0.0,0.1478419452905655,-0.12030863016843796,9.798869132995605,0.0028540175408124924,-0.00790496077388525,0.8830077648162842,0.46927401423454285
1789656132127562654,1789656132130144542,0.0,0.0,0.0,0.1478419452905655,-0.12030863016843796,9.798869132995605,0.0028540175408124924,-0.00790496077388525,0.8830077648162842,0.46927401423454285
1789656132133537669,1789656132136364058,0.0,0.0,0.0,0.1478419452905655,-0.12030863016843796,9.798869132995605,0.0028540175408124924,-0.00790496077388525,0.8830077648162842,0.46927401423454285
1789656132137730198,1789656132148519407,0.0,0.0,0.0,0.04489128291606903,-0.10534487664699554,9.867103576660156,0.0027171745896339417,-0.008775351569056511,0.8830035924911499,0.46926718950271606
1789656132149257822,1789656132152486108,0.0,0.0,0.0,0.04489128291606903,-0.10534487664699554,9.867103576660156,0.0027171745896339417,-0.008775351569056511,0.8830035924911499,0.46926718950271606
1789656132153357260,1789656132157463625,0.0,0.0,0.0,0.04489128291606903,-0.10534487664699554,9.867103576660156,0.0027171745896339417,-0.008775351569056511,0.8830035924911499,0.46926718950271606
1789656132158237202,1789656132168391407,0.0,0.0,0.0,0.14365209639072418,-0.11372458189725876,9.88386344909668,0.002554370788857341,-0.007922371849417686,0.8830100297927856,0.46927109360694885
1789656132169369674,1789656132171293640,0.0,0.0,0.0,0.14365209639072418,-0.11372458189725876,9.88386344909668,0.002554370788857341,-0.007922371849417686,0.8830100297927856,0.46927109360694885
1789656132172125277,1789656132175255728,0.0,0.0,0.0,0.14365209639072418,-0.11372458189725876,9.88386344909668,0.002554370788857341,-0.007922371849417686,0.8830100297927856,0.46927109360694885
1789656132176165951,1789656132178196903,0.0,0.0,0.0,0.14365209639072418,-0.11372458189725876,9.88386344909668,0.002554370788857341,-0.007922371849417686,0.8830100297927856,0.46927109360694885
1789656132181058750,1789656132189530712,0.0,0.0,0.0,0.06165069341659546,-0.11192892491817474,9.880271911621094,0.00322374003008008,-0.007327005732804537,0.8830088376998901,0.4692787528038025
1789656132189669525,1789656132192459177,0.0,0.0,0.0,0.06165069341659546,-0.11192892491817474,9.880271911621094,0.00322374003008008,-0.007327005732804537,0.8830088376998901,0.4692787528038025
1789656132193330792,1789656132196392273,0.0,0.0,0.0,0.06165069341659546,-0.11192892491817474,9.880271911621094,0.00322374003008008,-0.007327005732804537,0.8830088376998901,0.4692787528038025
1789656132197252883,1789656132199302917,0.0,0.0,0.0,0.06165069341659546,-0.11192892491817474,9.880271911621094,0.00322374003008008,-0.007327005732804537,0.8830088376998901,0.4692787528038025
1789656132200988995,1789656132211387312,0.0,0.0,0.0,0.13407529890537262,-0.10953472554683685,9.905410766601562,0.0027755703777074814,-0.008093415759503841,0.8830073475837708,0.46927204728126526
1789656132212080265,1789656132215563020,0.0,0.0,0.0,0.13407529890537262,-0.10953472554683685,9.905410766601562,0.0027755703777074814,-0.008093415759503841,0.8830073475837708,0.46927204728126526
1789656132217039498,1789656132219689875,0.0,0.0,0.0,0.13407529890537262,-0.10953472554683685,9.905410766601562,0.0027755703777074814,-0.008093415759503841,0.8830073475837708,0.46927204728126526
1789656132221194586,1789656132231304274,0.0,0.0,0.0,0.16400282084941864,-0.09816227108240128,9.763554573059082,0.00391863938421011,-0.007323137018829584,0.8830043077468872,0.46928223967552185
1789656132232096803,1789656132233261346,0.0,0.0,0.0,0.16400282084941864,-0.09816227108240128,9.763554573059082,0.00391863938421011,-0.007323137018829584,0.8830043077468872,0.46928223967552185
1789656132236355449,1789656132238191493,0.0,0.0,0.0,0.16400282084941864,-0.09816227108240128,9.763554573059082,0.00391863938421011,-0.007323137018829584,0.8830043077468872,0.46928223967552185
1789656132241050839,1789656132252833600,0.0,0.0,0.0,0.13347674906253815,-0.07062894850969315,9.840168952941895,0.0032661103177815676,-0.006660079583525658,0.8830116987228394,0.4692830443382263
1789656132252712812,1789656132254599709,0.0,0.0,0.0,0.13347674906253815,-0.07062894850969315,9.840168952941895,0.0032661103177815676,-0.006660079583525658,0.8830116987228394,0.4692830443382263
1789656132256483585,1789656132259716521,0.0,0.0,0.0,0.13347674906253815,-0.07062894850969315,9.840168952941895,0.0032661103177815676,-0.006660079583525658,0.8830116987228394,0.4692830443382263
1789656132261091164,1789656132273591461,0.0,0.0,0.0,0.13826514780521393,-0.14724339544773102,9.922768592834473,0.0025314013473689556,-0.008479890413582325,0.88300621509552,0.4692686200141907
1789656132273530141,1789656132275412035,0.0,0.0,0.0,0.13826514780521393,-0.14724339544773102,9.922768592834473,0.0025314013473689556,-0.008479890413582325,0.88300621509552,0.4692686200141907
1789656132276192429,1789656132278251318,0.0,0.0,0.0,0.13826514780521393,-0.14724339544773102,9.922768592834473,0.0025314013473689556,-0.008479890413582325,0.88300621509552,0.4692686200141907
1789656132281100513,1789656132295209321,0.0,0.0,0.0,0.10953472554683685,-0.09576806426048279,9.81024169921875,0.002488890429958701,-0.0068370443768799305,0.8830151557922363,0.4692787826061249
1789656132295186293,1789656132298569731,0.0,0.0,0.0,0.10953472554683685,-0.09576806426048279,9.81024169921875,0.002488890429958701,-0.0068370443768799305,0.8830151557922363,0.4692787826061249
1789656132299387010,1789656132301410867,0.0,0.0,0.0,0.10953472554683685,-0.09576806426048279,9.81024169921875,0.002488890429958701,-0.0068370443768799305,0.8830151557922363,0.4692787826061249
1789656132302342468,1789656132315905491,0.0,0.0,0.0,0.14664484560489655,-0.08559270948171616,9.913191795349121,0.003085571341216564,-0.007936212234199047,0.8830055594444275,0.46927618980407715
1789656132316701595,1789656132328143020,0.0,0.0,0.0,0.14664484560489655,-0.08559270948171616,9.913191795349121,0.003085571341216564,-0.007936212234199047,0.8830055594444275,0.46927618980407715
1789656132321799919,1789656132328988588,0.0,0.0,0.0,0.14664484560489655,-0.08559270948171616,9.913191795349121,0.003085571341216564,-0.007936212234199047,0.8830055594444275,0.46927618980407715
1789656132326065439,1789656132335406551,0.0,0.0,0.0,0.19273322820663452,-0.06763619929552078,9.803657531738281,0.0023796851746737957,-0.007948938757181168,0.8830098509788513,0.46927204728126526
1789656132337829840,1789656132341157294,0.0,0.0,0.0,0.19273322820663452,-0.06763619929552078,9.803657531738281,0.0023796851746737957,-0.007948938757181168,0.8830098509788513,0.46927204728126526
1789656132341136600,1789656132342396699,0.0,0.0,0.0,0.19273322820663452,-0.06763619929552078,9.803657531738281,0.0023796851746737957,-0.007948938757181168,0.8830098509788513,0.46927204728126526
1789656132346142018,1789656132356577757,0.0,0.0,0.0,0.1388636976480484,-0.0802057534456253,9.960477828979492,0.001754019525833428,-0.007324598729610443,0.8830170035362244,0.46927133202552795
1789656132356667959,1789656132361055767,0.0,0.0,0.0,0.1388636976480484,-0.0802057534456253,9.960477828979492,0.001754019525833428,-0.007324598729610443,0.8830170035362244,0.46927133202552795
1789656132361208918,1789656132364306876,0.0,0.0,0.0,0.1388636976480484,-0.0802057534456253,9.960477828979492,0.001754019525833428,-0.007324598729610443,0.8830170035362244,0.46927133202552795
1789656132365927910,1789656132377887387,0.0,0.0,0.0,0.10654197633266449,-0.1149216815829277,9.943119049072266,0.002398524899035692,-0.007653943262994289,0.8830118179321289,0.46927309036254883
1789656132378137354,1789656132381482926,0.0,0.0,0.0,0.10654197633266449,-0.1149216815829277,9.943119049072266,0.002398524899035692,-0.007653943262994289,0.8830118179321289,0.46927309036254883
1789656132381662421,1789656132385438678,0.0,0.0,0.0,0.10654197633266449,-0.1149216815829277,9.943119049072266,0.002398524899035692,-0.007653943262994289,0.8830118179321289,0.46927309036254883
1789656132387274239,1789656132400059054,0.0,0.0,0.0,0.09397241473197937,-0.11192892491817474,9.890446662902832,0.0015866195317357779,-0.0073764086700975895,0.8830174207687378,0.4692703187465668
1789656132400452762,1789656132403571357,0.0,0.0,0.0,0.09397241473197937,-0.11192892491817474,9.890446662902832,0.0015866195317357779,-0.0073764086700975895,0.8830174207687378,0.4692703187465668
1789656132404566130,1789656132408355577,0.0,0.0,0.0,0.09397241473197937,-0.11192892491817474,9.890446662902832,0.0015866195317357779,-0.0073764086700975895,0.8830174207687378,0.4692703187465668
1789656132408237883,1789656132419907619,0.0,0.0,0.0,0.11192892491817474,-0.08798690885305405,9.88506031036377,0.002896745689213276,-0.0064028059132397175,0.8830151557922363,0.469282865524292
1789656132421508923,1789656132426117835,0.0,0.0,0.0,0.11192892491817474,-0.08798690885305405,9.88506031036377,0.002896745689213276,-0.0064028059132397175,0.8830151557922363,0.469282865524292
1789656132426172875,1789656132431982474,0.0,0.0,0.0,0.11192892491817474,-0.08798690885305405,9.88506031036377,0.002896745689213276,-0.0064028059132397175,0.8830151557922363,0.469282865524292
1789656132440494488,1789656132444459558,0.0,0.0,0.0,0.15023615956306458,-0.13946224749088287,9.813234329223633,0.00407266803085804,-0.006596004590392113,0.8830074071884155,0.4692856967449188
1789656132443991303,1789656132450198555,0.0,0.0,0.0,0.15023615956306458,-0.13946224749088287,9.813234329223633,0.00407266803085804,-0.006596004590392113,0.8830074071884155,0.4692856967449188
1789656132449602362,1789656132461464634,0.0,0.0,0.0,0.1215057373046875,-0.10773907601833344,9.843161582946777,0.0028364083264023066,-0.008076806552708149,0.8830079436302185,0.4692707061767578
1789656132462190619,1789656132465410512,0.0,0.0,0.0,0.1215057373046875,-0.10773907601833344,9.843161582946777,0.0028364083264023066,-0.008076806552708149,0.8830079436302185,0.4692707061767578
1789656132466229625,1789656132468431754,0.0,0.0,0.0,0.1215057373046875,-0.10773907601833344,9.843161582946777,0.0028364083264023066,-0.008076806552708149,0.8830079436302185,0.4692707061767578
1789656132471139135,1789656132481704795,0.0,0.0,0.0,0.13826514780521393,-0.09935937076807022,9.972448348999023,0.0035806798841804266,-0.007554906420409679,0.883005678653717,0.46927857398986816
1789656132481809428,1789656132484663439,0.0,0.0,0.0,0.13826514780521393,-0.09935937076807022,9.972448348999023,0.0035806798841804266,-0.007554906420409679,0.883005678653717,0.46927857398986816
1789656132486402556,1789656132488588253,0.0,0.0,0.0,0.13826514780521393,-0.09935937076807022,9.972448348999023,0.0035806798841804266,-0.007554906420409679,0.883005678653717,0.46927857398986816
1789656132491182997,1789656132502528737,0.0,0.0,0.0,0.12210428714752197,-0.12330138683319092,9.835380554199219,0.0042347670532763,-0.008091111667454243,0.8829986453056335,0.4692777395248413
1789656132503319987,1789656132505582825,0.0,0.0,0.0,0.12210428714752197,-0.12330138683319092,9.835380554199219,0.0042347670532763,-0.008091111667454243,0.8829986453056335,0.4692777395248413
1789656132506165662,1789656132509548785,0.0,0.0,0.0,0.12210428714752197,-0.12330138683319092,9.835380554199219,0.0042347670532763,-0.008091111667454243,0.8829986453056335,0.4692777395248413
1789656132511199386,1789656132523983441,0.0,0.0,0.0,0.11851298063993454,-0.1256955862045288,9.951498985290527,0.0026975134387612343,-0.008667456917464733,0.8830063939094543,0.4692639708518982
1789656132523965138,1789656132527774130,0.0,0.0,0.0,0.11851298063993454,-0.1256955862045288,9.951498985290527,0.0026975134387612343,-0.008667456917464733,0.8830063939094543,0.4692639708518982
1789656132528902992,1789656132530676252,0.0,0.0,0.0,0.11851298063993454,-0.1256955862045288,9.951498985290527,0.0026975134387612343,-0.008667456917464733,0.8830063939094543,0.4692639708518982
1789656132532624172,1789656132544649193,0.0,0.0,0.0,0.12210428714752197,-0.13168108463287354,9.879075050354004,0.0030483598820865154,-0.008049258962273598,0.883007824420929,0.46927013993263245
1789656132545400705,1789656132549853687,0.0,0.0,0.0,0.12210428714752197,-0.13168108463287354,9.879075050354004,0.0030483598820865154,-0.008049258962273598,0.883007824420929,0.46927013993263245
1789656132550266661,1789656132553689077,0.0,0.0,0.0,0.12210428714752197,-0.13168108463287354,9.879075050354004,0.0030483598820865154,-0.008049258962273598,0.883007824420929,0.46927013993263245
1789656132554478623,1789656132565569505,0.0,0.0,0.0,0.13826514780521393,-0.11552023142576218,9.88506031036377,0.0024375631473958492,-0.008503518998622894,0.8830088376998901,0.46926388144493103
1789656132566313867,1789656132570756344,0.0,0.0,0.0,0.13826514780521393,-0.11552023142576218,9.88506031036377,0.0024375631473958492,-0.008503518998622894,0.8830088376998901,0.46926388144493103
1789656132571310392,1789656132574443418,0.0,0.0,0.0,0.13826514780521393,-0.11552023142576218,9.88506031036377,0.0024375631473958492,-0.008503518998622894,0.8830088376998901,0.46926388144493103
1789656132576111508,1789656132587562751,0.0,0.0,0.0,0.1215057373046875,-0.10534487664699554,9.985017776489258,0.002962311264127493,-0.007572842761874199,0.8830112814903259,0.46927201747894287
1789656132586793658,1789656132589770939,0.0,0.0,0.0,0.1215057373046875,-0.10534487664699554,9.985017776489258,0.002962311264127493,-0.007572842761874199,0.8830112814903259,0.46927201747894287
1789656132591201325,1789656132594158265,0.0,0.0,0.0,0.1215057373046875,-0.10534487664699554,9.985017776489258,0.002962311264127493,-0.007572842761874199,0.8830112814903259,0.46927201747894287
1789656132596212911,1789656132608607297,0.0,0.0,0.0,0.14185644686222076,-0.043095629662275314,9.742605209350586,0.0025030006654560566,-0.006477694492787123,0.8830198049545288,0.4692753255367279
1789656132608838535,1789656132611645935,0.0,0.0,0.0,0.14185644686222076,-0.043095629662275314,9.742605209350586,0.0025030006654560566,-0.006477694492787123,0.8830198049545288,0.4692753255367279
1789656132612657975,1789656132617670765,0.0,0.0,0.0,0.14185644686222076,-0.043095629662275314,9.742605209350586,0.0025030006654560566,-0.006477694492787123,0.8830198049545288,0.4692753255367279
1789656132617868230,1789656132627808315,0.0,0.0,0.0,0.1562216579914093,-0.12928688526153564,9.953893661499023,0.002153354696929455,-0.0079929418861866,0.8830132484436035,0.46926602721214294
1789656132628627836,1789656132631033618,0.0,0.0,0.0,0.1562216579914093,-0.12928688526153564,9.953893661499023,0.002153354696929455,-0.0079929418861866,0.8830132484436035,0.46926602721214294
1789656132634514168,1789656132637613848,0.0,0.0,0.0,0.1562216579914093,-0.12928688526153564,9.953893661499023,0.002153354696929455,-0.0079929418861866,0.8830132484436035,0.46926602721214294
1789656132638169915,1789656132648790263,0.0,0.0,0.0,0.13108253479003906,-0.09935937076807022,9.99339771270752,0.0033724394161254168,-0.007110885810106993,0.88301020860672,0.4692786931991577
1789656132649603725,1789656132652343859,0.0,0.0,0.0,0.13108253479003906,-0.09935937076807022,9.99339771270752,0.0033724394161254168,-0.007110885810106993,0.88301020860672,0.4692786931991577
1789656132654600361,1789656132659873141,0.0,0.0,0.0,0.13108253479003906,-0.09935937076807022,9.99339771270752,0.0033724394161254168,-0.007110885810106993,0.88301020860672,0.4692786931991577
1789656132659556593,1789656132669984570,0.0,0.0,0.0,0.166995570063591,-0.09516951441764832,9.874884605407715,0.0028810619842261076,-0.006586751900613308,0.8830155730247498,0.4692794680595398
1789656132670342468,1789656132672859738,0.0,0.0,0.0,0.166995570063591,-0.09516951441764832,9.874884605407715,0.0028810619842261076,-0.006586751900613308,0.8830155730247498,0.4692794680595398
1789656132673855882,1789656132677635455,0.0,0.0,0.0,0.166995570063591,-0.09516951441764832,9.874884605407715,0.0028810619842261076,-0.006586751900613308,0.8830155730247498,0.4692794680595398
1789656132678495917,1789656132691616084,0.0,0.0,0.0,0.10474631935358047,-0.11911153048276901,9.916184425354004,0.0018902034498751163,-0.007906473241746426,0.8830136656761169,0.4692678451538086
1789656132691735537,1789656132696433187,0.0,0.0,0.0,0.10474631935358047,-0.11911153048276901,9.916184425354004,0.0018902034498751163,-0.007906473241746426,0.8830136656761169,0.4692678451538086
1789656132697669721,1789656132699721607,0.0,0.0,0.0,0.10474631935358047,-0.11911153048276901,9.916184425354004,0.0018902034498751163,-0.007906473241746426,0.8830136656761169,0.4692678451538086
1789656132701510818,1789656132711668857,0.0,0.0,0.0,0.11971008032560349,-0.0933738648891449,9.839570045471191,0.0017865803092718124,-0.006852427963167429,0.8830204010009766,0.4692719578742981
1789656132711754131,1789656132713899720,0.0,0.0,0.0,0.11971008032560349,-0.0933738648891449,9.839570045471191,0.0017865803092718124,-0.006852427963167429,0.8830204010009766,0.4692719578742981
1789656132716236753,1789656132718786591,0.0,0.0,0.0,0.11971008032560349,-0.0933738648891449,9.839570045471191,0.0017865803092718124,-0.006852427963167429,0.8830204010009766,0.4692719578742981
1789656132721397619,1789656132732612290,0.0,0.0,0.0,0.1346738487482071,-0.10115502029657364,9.836577415466309,0.0010640661930665374,-0.00710238516330719,0.883022129535675,0.4692671000957489
1789656132732730243,1789656132734911679,0.0,0.0,0.0,0.1346738487482071,-0.10115502029657364,9.836577415466309,0.0010640661930665374,-0.00710238516330719,0.883022129535675,0.4692671000957489
1789656132736634382,1789656132739608662,0.0,0.0,0.0,0.1346738487482071,-0.10115502029657364,9.836577415466309,0.0010640661930665374,-0.00710238516330719,0.883022129535675,0.4692671000957489
1789656132741103092,1789656132754736253,0.0,0.0,0.0,0.13168108463287354,-0.14065934717655182,9.922768592834473,0.002469739643856883,-0.008019835688173771,0.8830100893974304,0.4692697823047638
1789656132754011250,1789656132757936028,0.0,0.0,0.0,0.13168108463287354,-0.14065934717655182,9.922768592834473,0.002469739643856883,-0.008019835688173771,0.8830100893974304,0.4692697823047638
1789656132757677261,1789656132763035463,0.0,0.0,0.0,0.13168108463287354,-0.14065934717655182,9.922768592834473,0.002469739643856883,-0.008019835688173771,0.8830100893974304,0.4692697823047638
1789656132761821178,1789656132774734042,0.0,0.0,0.0,0.10474631935358047,-0.12988543510437012,9.859322547912598,0.0017189047066494823,-0.008176838979125023,0.8830134868621826,0.4692640006542206
1789656132775749398,1789656132778991337,0.0,0.0,0.0,0.10474631935358047,-0.12988543510437012,9.859322547912598,0.0017189047066494823,-0.008176838979125023,0.8830134868621826,0.4692640006542206
1789656132779723916,1789656132784002386,0.0,0.0,0.0,0.10474631935358047,-0.12988543510437012,9.859322547912598,0.0017189047066494823,-0.008176838979125023,0.8830134868621826,0.4692640006542206
1789656132784576367,1789656132795535438,0.0,0.0,0.0,0.10594342648983002,-0.09935937076807022,10.020931243896484,0.0028506144881248474,-0.006522337906062603,0.8830165266990662,0.4692787230014801
1789656132796114533,1789656132799654920,0.0,0.0,0.0,0.10594342648983002,-0.09935937076807022,10.020931243896484,0.0028506144881248474,-0.006522337906062603,0.8830165266990662,0.4692787230014801
1789656132801428495,1789656132804576083,0.0,0.0,0.0,0.10594342648983002,-0.09935937076807022,10.020931243896484,0.0028506144881248474,-0.006522337906062603,0.8830165266990662,0.4692787230014801
1789656132806254250,1789656132815839476,0.0,0.0,0.0,0.090979665517807,-0.07841010391712189,9.731232643127441,0.0018747112480923533,-0.006400546990334988,0.8830223679542542,0.4692743122577667
1789656132816082607,1789656132818922131,0.0,0.0,0.0,0.090979665517807,-0.07841010391712189,9.731232643127441,0.0018747112480923533,-0.006400546990334988,0.8830223679542542,0.4692743122577667
1789656132821254273,1789656132823239300,0.0,0.0,0.0,0.090979665517807,-0.07841010391712189,9.731232643127441,0.0018747112480923533,-0.006400546990334988,0.8830223679542542,0.4692743122577667
1789656132826318973,1789656132837986318,0.0,0.0,0.0,0.17058686912059784,-0.1364694982767105,9.859322547912598,0.001278170384466648,-0.007648841477930546,0.883017897605896,0.46926599740982056
1789656132841134313,1789656132843901995,0.0,0.0,0.0,0.17058686912059784,-0.1364694982767105,9.859322547912598,0.001278170384466648,-0.007648841477930546,0.883017897605896,0.46926599740982056
1789656132846321412,1789656132858355140,0.0,0.0,0.0,0.0933738648891449,-0.11911153048276901,9.95329475402832,0.0019484056392684579,-0.007882790639996529,0.8830130696296692,0.4692690670490265
1789656132857900019,1789656132860978228,0.0,0.0,0.0,0.0933738648891449,-0.11911153048276901,9.95329475402832,0.0019484056392684579,-0.007882790639996529,0.8830130696296692,0.4692690670490265
1789656132861299260,1789656132865255345,0.0,0.0,0.0,0.0933738648891449,-0.11911153048276901,9.95329475402832,0.0019484056392684579,-0.007882790639996529,0.8830130696296692,0.4692690670490265
1789656132866592047,1789656132878889136,0.0,0.0,0.0,0.1149216815829277,-0.08978256583213806,9.8970308303833,0.003156402613967657,-0.007599706295877695,0.8830070495605469,0.4692782461643219
1789656132879154128,1789656132880823199,0.0,0.0,0.0,0.1149216815829277,-0.08978256583213806,9.8970308303833,0.003156402613967657,-0.007599706295877695,0.8830070495605469,0.4692782461643219
1789656132881647129,1789656132886328662,0.0,0.0,0.0,0.1149216815829277,-0.08978256583213806,9.8970308303833,0.003156402613967657,-0.007599706295877695,0.8830070495605469,0.4692782461643219
1789656132886598673,1789656132900139225,0.0,0.0,0.0,0.09696516394615173,-0.13587094843387604,9.90122127532959,0.002720734803006053,-0.006704892031848431,0.8830137848854065,0.46928200125694275
1789656132900651552,1789656132904107481,0.0,0.0,0.0,0.09696516394615173,-0.13587094843387604,9.90122127532959,0.002720734803006053,-0.006704892031848431,0.8830137848854065,0.46928200125694275
1789656132904684519,1789656132906897727,0.0,0.0,0.0,0.09696516394615173,-0.13587094843387604,9.90122127532959,0.002720734803006053,-0.006704892031848431,0.8830137848854065,0.46928200125694275
1789656132907693868,1789656132921918629,0.0,0.0,0.0,0.12749123573303223,-0.07541735470294952,9.90241813659668,0.002372497459873557,-0.0059508983977139,0.8830190896987915,0.4692840278148651
1789656132923848356,1789656132926973343,0.0,0.0,0.0,0.12749123573303223,-0.07541735470294952,9.90241813659668,0.002372497459873557,-0.0059508983977139,0.8830190896987915,0.4692840278148651
1789656132928896012,1789656132940942745,0.0,0.0,0.0,0.08379705995321274,-0.11971008032560349,9.871293067932129,0.0010089620482176542,-0.0061454311944544315,0.8830236792564392,0.4692777991294861
1789656132943923212,1789656132946015318,0.0,0.0,0.0,0.08379705995321274,-0.11971008032560349,9.871293067932129,0.0010089620482176542,-0.0061454311944544315,0.8830236792564392,0.4692777991294861
1789656132947056887,1789656132951006285,0.0,0.0,0.0,0.08379705995321274,-0.11971008032560349,9.871293067932129,0.0010089620482176542,-0.0061454311944544315,0.8830236792564392,0.4692777991294861
1789656132951730491,1789656132962246688,0.0,0.0,0.0,0.09516951441764832,-0.14484919607639313,9.90361499786377,0.0019016590667888522,-0.007204378955066204,0.8830146789550781,0.46927693486213684
1789656132964497928,1789656132967124444,0.0,0.0,0.0,0.09516951441764832,-0.14484919607639313,9.90361499786377,0.0019016590667888522,-0.007204378955066204,0.8830146789550781,0.46927693486213684
1789656132967772250,1789656132971512048,0.0,0.0,0.0,0.09516951441764832,-0.14484919607639313,9.90361499786377,0.0019016590667888522,-0.007204378955066204,0.8830146789550781,0.46927693486213684
1789656132973014463,1789656132982902027,0.0,0.0,0.0,0.07781155407428741,-0.13108253479003906,9.866504669189453,0.00231336522847414,-0.007982108741998672,0.8830082416534424,0.4692746102809906
1789656132983804191,1789656132988381016,0.0,0.0,0.0,0.07781155407428741,-0.13108253479003906,9.866504669189453,0.00231336522847414,-0.007982108741998672,0.8830082416534424,0.4692746102809906
1789656132988853940,1789656132991953305,0.0,0.0,0.0,0.07781155407428741,-0.13108253479003906,9.866504669189453,0.00231336522847414,-0.007982108741998672,0.8830082416534424,0.4692746102809906
1789656132993175408,1789656133005485217,0.0,0.0,0.0,0.06883329898118973,-0.11611878126859665,9.867103576660156,0.0014060426037758589,-0.0066923233680427074,0.8830198049545288,0.4692769944667816
1789656133005702968,1789656133009817640,0.0,0.0,0.0,0.06883329898118973,-0.11611878126859665,9.867103576660156,0.0014060426037758589,-0.0066923233680427074,0.8830198049545288,0.4692769944667816
1789656133010075943,1789656133013198308,0.0,0.0,0.0,0.06883329898118973,-0.11611878126859665,9.867103576660156,0.0014060426037758589,-0.0066923233680427074,0.8830198049545288,0.4692769944667816
1789656133016003644,1789656133025917950,0.0,0.0,0.0,0.07781155407428741,-0.13946224749088287,9.923367500305176,0.0021555295679718256,-0.006616437807679176,0.8830167055130005,0.46928083896636963
1789656133025717224,1789656133030244184,0.0,0.0,0.0,0.07781155407428741,-0.13946224749088287,9.923367500305176,0.0021555295679718256,-0.006616437807679176,0.8830167055130005,0.46928083896636963
1789656133030183550,1789656133034091995,0.0,0.0,0.0,0.07781155407428741,-0.13946224749088287,9.923367500305176,0.0021555295679718256,-0.006616437807679176,0.8830167055130005,0.46928083896636963
1789656133046063090,1789656133048040256,0.0,0.0,0.0,0.08978256583213806,-0.12629413604736328,9.778517723083496,0.0013403295306488872,-0.007904895581305027,0.8830140829086304,0.4692690968513489
1789656133048860478,1789656133055617628,0.0,0.0,0.0,0.08978256583213806,-0.12629413604736328,9.778517723083496,0.0013403295306488872,-0.007904895581305027,0.8830140829086304,0.4692690968513489
1789656133054159661,1789656133065987367,0.0,0.0,0.0,0.02454056777060032,-0.11252747476100922,9.962272644042969,0.001800917903892696,-0.00682816281914711,0.8830175399780273,0.46927762031555176
1789656133066678799,1789656133068729994,0.0,0.0,0.0,0.02454056777060032,-0.11252747476100922,9.962272644042969,0.001800917903892696,-0.00682816281914711,0.8830175399780273,0.46927762031555176
1789656133071364320,1789656133072798130,0.0,0.0,0.0,0.02454056777060032,-0.11252747476100922,9.962272644042969,0.001800917903892696,-0.00682816281914711,0.8830175399780273,0.46927762031555176
1789656133076359867,1789656133089542224,0.0,0.0,0.0,0.10953472554683685,-0.12749123573303223,9.889848709106445,0.0012111711548641324,-0.006358428858220577,0.8830224275588989,0.46927693486213684
1789656133087230114,1789656133092618645,0.0,0.0,0.0,0.10953472554683685,-0.12749123573303223,9.889848709106445,0.0012111711548641324,-0.006358428858220577,0.8830224275588989,0.46927693486213684
1789656133092146464,1789656133097302740,0.0,0.0,0.0,0.10953472554683685,-0.12749123573303223,9.889848709106445,0.0012111711548641324,-0.006358428858220577,0.8830224275588989,0.46927693486213684
1789656133096586724,1789656133108040157,0.0,0.0,0.0,0.014365210197865963,-0.16998831927776337,9.850343704223633,0.0009199862251989543,-0.007728749420493841,0.8830162882804871,0.46926864981651306
1789656133108128247,1789656133110799791,0.0,0.0,0.0,0.014365210197865963,-0.16998831927776337,9.850343704223633,0.0009199862251989543,-0.007728749420493841,0.8830162882804871,0.46926864981651306
1789656133111735205,1789656133115031582,0.0,0.0,0.0,0.014365210197865963,-0.16998831927776337,9.850343704223633,0.0009199862251989543,-0.007728749420493841,0.8830162882804871,0.46926864981651306
1789656133116881681,1789656133129886617,0.0,0.0,0.0,0.10893617570400238,-0.12509703636169434,9.827000617980957,0.0003657786874100566,-0.007308330852538347,0.8830212354660034,0.4692668318748474
1789656133129508194,1789656133131897185,0.0,0.0,0.0,0.10893617570400238,-0.12509703636169434,9.827000617980957,0.0003657786874100566,-0.007308330852538347,0.8830212354660034,0.4692668318748474
1789656133133805492,1789656133135749164,0.0,0.0,0.0,0.10893617570400238,-0.12509703636169434,9.827000617980957,0.0003657786874100566,-0.007308330852538347,0.8830212354660034,0.4692668318748474
1789656133136643896,1789656133137839652,0.0,0.0,0.0,0.10893617570400238,-0.12509703636169434,9.827000617980957,0.0003657786874100566,-0.007308330852538347,0.8830212354660034,0.4692668318748474
1789656133141376769,1789656133150233872,0.0,0.0,0.0,0.0628477931022644,-0.14604629576206207,9.88745403289795,0.0009883800521492958,-0.007840237580239773,0.883015513420105,0.469268262386322
1789656133150115882,1789656133152416840,0.0,0.0,0.0,0.0628477931022644,-0.14604629576206207,9.88745403289795,0.0009883800521492958,-0.007840237580239773,0.883015513420105,0.469268262386322
1789656133153028574,1789656133158128791,0.0,0.0,0.0,0.0628477931022644,-0.14604629576206207,9.88745403289795,0.0009883800521492958,-0.007840237580239773,0.883015513420105,0.469268262386322
1789656133158771223,1789656133170805509,0.0,0.0,0.0,0.12749123573303223,-0.1843535304069519,9.926959037780762,0.002158883260563016,-0.008650562725961208,0.883004367351532,0.4692707657814026
1789656133171691331,1789656133174780869,0.0,0.0,0.0,0.12749123573303223,-0.1843535304069519,9.926959037780762,0.002158883260563016,-0.008650562725961208,0.883004367351532,0.4692707657814026
1789656133176518017,1789656133180554400,0.0,0.0,0.0,0.12749123573303223,-0.1843535304069519,9.926959037780762,0.002158883260563016,-0.008650562725961208,0.883004367351532,0.4692707657814026
1789656133181922795,1789656133191976136,0.0,0.0,0.0,0.06464344263076782,-0.08379705995321274,9.866504669189453,0.0017110792687162757,-0.006666061468422413,0.8830182552337646,0.46927908062934875
1789656133192151796,1789656133194721115,0.0,0.0,0.0,0.06464344263076782,-0.08379705995321274,9.866504669189453,0.0017110792687162757,-0.006666061468422413,0.8830182552337646,0.46927908062934875
1789656133196605135,1789656133198941328,0.0,0.0,0.0,0.06464344263076782,-0.08379705995321274,9.866504669189453,0.0017110792687162757,-0.006666061468422413,0.8830182552337646,0.46927908062934875
1789656133201445956,1789656133213837861,0.0,0.0,0.0,0.03531447425484657,-0.10594342648983002,9.797073364257812,0.002260854234918952,-0.007117684930562973,0.8830133080482483,0.46927955746650696
1789656133213147447,1789656133215020629,0.0,0.0,0.0,0.03531447425484657,-0.10594342648983002,9.797073364257812,0.002260854234918952,-0.007117684930562973,0.8830133080482483,0.46927955746650696
1789656133216309328,1789656133220298674,0.0,0.0,0.0,0.03531447425484657,-0.10594342648983002,9.797073364257812,0.002260854234918952,-0.007117684930562973,0.8830133080482483,0.46927955746650696
1789656133221606176,1789656133232953624,0.0,0.0,0.0,0.06344634294509888,-0.12868833541870117,9.941324234008789,0.0011947305174544454,-0.006217052694410086,0.8830223083496094,0.46927911043167114
1789656133233054533,1789656133236756084,0.0,0.0,0.0,0.06344634294509888,-0.12868833541870117,9.941324234008789,0.0011947305174544454,-0.006217052694410086,0.8830223083496094,0.46927911043167114
1789656133239824465,1789656133243736170,0.0,0.0,0.0,0.06344634294509888,-0.12868833541870117,9.941324234008789,0.0011947305174544454,-0.006217052694410086,0.8830223083496094,0.46927911043167114
1789656133244070150,1789656133254219231,0.0,0.0,0.0,0.05027823522686958,-0.11911153048276901,9.779715538024902,0.0018618403701111674,-0.006544630974531174,0.883017897605896,0.46928074955940247
1789656133254917870,1789656133257301155,0.0,0.0,0.0,0.05027823522686958,-0.11911153048276901,9.779715538024902,0.0018618403701111674,-0.006544630974531174,0.883017897605896,0.46928074955940247
1789656133258380644,1789656133260993202,0.0,0.0,0.0,0.05027823522686958,-0.11911153048276901,9.779715538024902,0.0018618403701111674,-0.006544630974531174,0.883017897605896,0.46928074955940247
1789656133262381290,1789656133275299397,0.0,0.0,0.0,0.0586579404771328,-0.15023615956306458,9.872490882873535,0.001944311079569161,-0.007788262329995632,0.8830112218856812,0.46927422285079956
1789656133275813261,1789656133277861677,0.0,0.0,0.0,0.0586579404771328,-0.15023615956306458,9.872490882873535,0.001944311079569161,-0.007788262329995632,0.8830112218856812,0.46927422285079956
1789656133278671784,1789656133282218516,0.0,0.0,0.0,0.0586579404771328,-0.15023615956306458,9.872490882873535,0.001944311079569161,-0.007788262329995632,0.8830112218856812,0.46927422285079956
1789656133282923657,1789656133297134575,0.0,0.0,0.0,0.08499415963888168,-0.10354921966791153,9.844358444213867,0.002675125142559409,-0.007265230640769005,0.8830097913742065,0.46928170323371887
1789656133297515536,1789656133301151117,0.0,0.0,0.0,0.08499415963888168,-0.10354921966791153,9.844358444213867,0.002675125142559409,-0.007265230640769005,0.8830097913742065,0.46928170323371887
1789656133302008520,1789656133305882322,0.0,0.0,0.0,0.08499415963888168,-0.10354921966791153,9.844358444213867,0.002675125142559409,-0.007265230640769005,0.8830097913742065,0.46928170323371887
1789656133306427976,1789656133318072260,0.0,0.0,0.0,0.09157821536064148,-0.11013327538967133,9.839570045471191,0.0018175519071519375,-0.007897477596998215,0.8830112218856812,0.4692726731300354
1789656133318022408,1789656133321989189,0.0,0.0,0.0,0.09157821536064148,-0.11013327538967133,9.839570045471191,0.0018175519071519375,-0.007897477596998215,0.8830112218856812,0.4692726731300354
1789656133322855429,1789656133326033223,0.0,0.0,0.0,0.09157821536064148,-0.11013327538967133,9.839570045471191,0.0018175519071519375,-0.007897477596998215,0.8830112218856812,0.4692726731300354
1789656133326759150,1789656133337973881,0.0,0.0,0.0,0.09876082092523575,-0.11312603205442429,9.942521095275879,0.0019612375181168318,-0.007128333672881126,0.8830147385597229,0.4692777693271637
1789656133340032615,1789656133342057578,0.0,0.0,0.0,0.09876082092523575,-0.11312603205442429,9.942521095275879,0.0019612375181168318,-0.007128333672881126,0.8830147385597229,0.4692777693271637
1789656133342658420,1789656133345220662,0.0,0.0,0.0,0.09876082092523575,-0.11312603205442429,9.942521095275879,0.0019612375181168318,-0.007128333672881126,0.8830147385597229,0.4692777693271637
1789656133347076078,1789656133359308589,0.0,0.0,0.0,0.05506663769483566,-0.12270283699035645,9.864110946655273,0.0019025743240490556,-0.00807705894112587,0.8830098509788513,0.4692718982696533
1789656133359292694,1789656133361108094,0.0,0.0,0.0,0.05506663769483566,-0.12270283699035645,9.864110946655273,0.0019025743240490556,-0.00807705894112587,0.8830098509788513,0.4692718982696533
1789656133362101012,1789656133366425524,0.0,0.0,0.0,0.05506663769483566,-0.12270283699035645,9.864110946655273,0.0019025743240490556,-0.00807705894112587,0.8830098509788513,0.4692718982696533
1789656133366640959,1789656133380527900,0.0,0.0,0.0,0.13826514780521393,-0.1586158573627472,9.893440246582031,0.002976230112835765,-0.009040584787726402,0.8829975128173828,0.4692719876766205
1789656133381433618,1789656133384973607,0.0,0.0,0.0,0.13826514780521393,-0.1586158573627472,9.893440246582031,0.002976230112835765,-0.009040584787726402,0.8829975128173828,0.4692719876766205
1789656133386851161,1789656133390631001,0.0,0.0,0.0,0.13826514780521393,-0.1586158573627472,9.893440246582031,0.002976230112835765,-0.009040584787726402,0.8829975128173828,0.4692719876766205
1789656133391510616,1789656133400011768,0.0,0.0,0.0,0.0628477931022644,-0.13527239859104156,9.818620681762695,0.0027709577698260546,-0.007707688026130199,0.8830065131187439,0.4692802429199219
1789656133400460292,1789656133402883333,0.0,0.0,0.0,0.0628477931022644,-0.13527239859104156,9.818620681762695,0.0027709577698260546,-0.007707688026130199,0.8830065131187439,0.4692802429199219
1789656133404319607,1789656133406919994,0.0,0.0,0.0,0.0628477931022644,-0.13527239859104156,9.818620681762695,0.0027709577698260546,-0.007707688026130199,0.8830065131187439,0.4692802429199219
1789656133408114082,1789656133421529046,0.0,0.0,0.0,0.04908113554120064,-0.14844051003456116,9.837774276733398,0.0009970582323148847,-0.008403527550399303,0.8830121755599976,0.4692647159099579
1789656133422028719,1789656133426109378,0.0,0.0,0.0,0.04908113554120064,-0.14844051003456116,9.837774276733398,0.0009970582323148847,-0.008403527550399303,0.8830121755599976,0.4692647159099579
1789656133427620847,1789656133431509359,0.0,0.0,0.0,0.04908113554120064,-0.14844051003456116,9.837774276733398,0.0009970582323148847,-0.008403527550399303,0.8830121755599976,0.4692647159099579
1789656133442141217,1789656133444004729,0.0,0.0,0.0,0.11611878126859665,-0.09696516394615173,9.928753852844238,0.0020893511828035116,-0.007064796052873135,0.8830153346061707,0.4692772626876831
1789656133446663713,1789656133449189979,0.0,0.0,0.0,0.11611878126859665,-0.09696516394615173,9.928753852844238,0.0020893511828035116,-0.007064796052873135,0.8830153346061707,0.4692772626876831
1789656133451606369,1789656133463269939,0.0,0.0,0.0,0.10235211998224258,-0.10295066982507706,9.824606895446777,0.0020743203349411488,-0.0077623967081308365,0.8830114006996155,0.4692734479904175
1789656133463224106,1789656133464937042,0.0,0.0,0.0,0.10235211998224258,-0.10295066982507706,9.824606895446777,0.0020743203349411488,-0.0077623967081308365,0.8830114006996155,0.4692734479904175
1789656133466481171,1789656133471469827,0.0,0.0,0.0,0.10235211998224258,-0.10295066982507706,9.824606895446777,0.0020743203349411488,-0.0077623967081308365,0.8830114006996155,0.4692734479904175
1789656133472123133,1789656133484993111,0.0,0.0,0.0,0.08499415963888168,-0.14006079733371735,9.870695114135742,0.002457329072058201,-0.008552629500627518,0.8830046653747559,0.46927082538604736
1789656133484681009,1789656133488531302,0.0,0.0,0.0,0.08499415963888168,-0.14006079733371735,9.870695114135742,0.002457329072058201,-0.008552629500627518,0.8830046653747559,0.46927082538604736
1789656133489081050,1789656133491425228,0.0,0.0,0.0,0.08499415963888168,-0.14006079733371735,9.870695114135742,0.002457329072058201,-0.008552629500627518,0.8830046653747559,0.46927082538604736
1789656133492136945,1789656133505082489,0.0,0.0,0.0,0.08200141042470932,-0.15741875767707825,9.881468772888184,0.003157766070216894,-0.008581336587667465,0.8829999566078186,0.4692749083042145
1789656133505795225,1789656133509456001,0.0,0.0,0.0,0.08200141042470932,-0.15741875767707825,9.881468772888184,0.003157766070216894,-0.008581336587667465,0.8829999566078186,0.4692749083042145
1789656133510108862,1789656133514570464,0.0,0.0,0.0,0.08200141042470932,-0.15741875767707825,9.881468772888184,0.003157766070216894,-0.008581336587667465,0.8829999566078186,0.4692749083042145
1789656133515319807,1789656133525475539,0.0,0.0,0.0,0.10953472554683685,-0.10953472554683685,9.751583099365234,0.0021268257405608892,-0.008048664778470993,0.8830092549324036,0.469272643327713
1789656133526017413,1789656133528435230,0.0,0.0,0.0,0.10953472554683685,-0.10953472554683685,9.751583099365234,0.0021268257405608892,-0.008048664778470993,0.8830092549324036,0.469272643327713
1789656133528889460,1789656133532765670,0.0,0.0,0.0,0.10953472554683685,-0.10953472554683685,9.751583099365234,0.0021268257405608892,-0.008048664778470993,0.8830092549324036,0.469272643327713
1789656133535155773,1789656133546843222,0.0,0.0,0.0,0.05746084079146385,-0.11312603205442429,9.904213905334473,0.002184838056564331,-0.006761270575225353,0.8830156922340393,0.4692806899547577
1789656133547052451,1789656133550724434,0.0,0.0,0.0,0.05746084079146385,-0.11312603205442429,9.904213905334473,0.002184838056564331,-0.006761270575225353,0.8830156922340393,0.4692806899547577
1789656133551904276,1789656133556390072,0.0,0.0,0.0,0.05746084079146385,-0.11312603205442429,9.904213905334473,0.002184838056564331,-0.006761270575225353,0.8830156922340393,0.4692806899547577
1789656133556877963,1789656133567522808,0.0,0.0,0.0,0.09217676520347595,-0.09397241473197937,9.759364128112793,0.0028270669281482697,-0.0070617953315377235,0.8830106258392334,0.46928223967552185
1789656133568257479,1789656133572186561,0.0,0.0,0.0,0.09217676520347595,-0.09397241473197937,9.759364128112793,0.0028270669281482697,-0.0070617953315377235,0.8830106258392334,0.46928223967552185
1789656133572743201,1789656133575996376,0.0,0.0,0.0,0.09217676520347595,-0.09397241473197937,9.759364128112793,0.0028270669281482697,-0.0070617953315377235,0.8830106258392334,0.46928223967552185
1789656133576730435,1789656133588719408,0.0,0.0,0.0,0.11851298063993454,-0.14006079733371735,9.831789016723633,0.0027875991072505713,-0.008671062998473644,0.8830022215843201,0.4692712426185608
1789656133588873782,1789656133590319170,0.0,0.0,0.0,0.11851298063993454,-0.14006079733371735,9.831789016723633,0.0027875991072505713,-0.008671062998473644,0.8830022215843201,0.4692712426185608
1789656133592313861,1789656133595826006,0.0,0.0,0.0,0.11851298063993454,-0.14006079733371735,9.831789016723633,0.0027875991072505713,-0.008671062998473644,0.8830022215843201,0.4692712426185608
1789656133596455729,1789656133609106789,0.0,0.0,0.0,0.06584054231643677,-0.11791443079710007,9.872490882873535,0.0035396823659539223,-0.00824604369699955,0.8829994201660156,0.4692789912223816
1789656133610120882,1789656133614381610,0.0,0.0,0.0,0.06584054231643677,-0.11791443079710007,9.872490882873535,0.0035396823659539223,-0.00824604369699955,0.8829994201660156,0.4692789912223816
1789656133615906658,1789656133618250354,0.0,0.0,0.0,0.06584054231643677,-0.11791443079710007,9.872490882873535,0.0035396823659539223,-0.00824604369699955,0.8829994201660156,0.4692789912223816
1789656133619773735,1789656133630529067,0.0,0.0,0.0,0.09636661410331726,-0.14006079733371735,9.82999324798584,0.004173886962234974,-0.00791996344923973,0.8829966187477112,0.46928486227989197
1789656133631030334,1789656133635073238,0.0,0.0,0.0,0.09636661410331726,-0.14006079733371735,9.82999324798584,0.004173886962234974,-0.00791996344923973,0.8829966187477112,0.46928486227989197
1789656133637144829,1789656133639525965,0.0,0.0,0.0,0.09636661410331726,-0.14006079733371735,9.82999324798584,0.004173886962234974,-0.00791996344923973,0.8829966187477112,0.46928486227989197
1789656133641574937,1789656133651875706,0.0,0.0,0.0,0.06404489278793335,-0.10953472554683685,9.867103576660156,0.0029936039354652166,-0.0065718586556613445,0.8830103278160095,0.46928897500038147
1789656133651411713,1789656133654415106,0.0,0.0,0.0,0.06404489278793335,-0.10953472554683685,9.867103576660156,0.0029936039354652166,-0.0065718586556613445,0.8830103278160095,0.46928897500038147
1789656133656640924,1789656133660427285,0.0,0.0,0.0,0.06404489278793335,-0.10953472554683685,9.867103576660156,0.0029936039354652166,-0.0065718586556613445,0.8830103278160095,0.46928897500038147
1789656133661514165,1789656133671378822,0.0,0.0,0.0,0.05147533491253853,-0.11192892491817474,9.81143856048584,0.0029052929021418095,-0.007595192641019821,0.88300621509552,0.4692818522453308
1789656133671285767,1789656133674348110,0.0,0.0,0.0,0.05147533491253853,-0.11192892491817474,9.81143856048584,0.0029052929021418095,-0.007595192641019821,0.88300621509552,0.4692818522453308
1789656133675005714,1789656133678369931,0.0,0.0,0.0,0.05147533491253853,-0.11192892491817474,9.81143856048584,0.0029052929021418095,-0.007595192641019821,0.88300621509552,0.4692818522453308
1789656133679598699,1789656133692460747,0.0,0.0,0.0,0.11611878126859665,-0.11312603205442429,9.809642791748047,0.002886448986828327,-0.008374053053557873,0.8830019235610962,0.46927645802497864
1789656133693132653,1789656133695205319,0.0,0.0,0.0,0.11611878126859665,-0.11312603205442429,9.809642791748047,0.002886448986828327,-0.008374053053557873,0.8830019235610962,0.46927645802497864
1789656133697784068,1789656133699115061,0.0,0.0,0.0,0.11611878126859665,-0.11312603205442429,9.809642791748047,0.002886448986828327,-0.008374053053557873,0.8830019235610962,0.46927645802497864
1789656133701625636,1789656133714485794,0.0,0.0,0.0,0.10115502029657364,-0.08978256583213806,9.8599214553833,0.002021924825385213,-0.007079088129103184,0.8830147981643677,0.4692782163619995
1789656133714609490,1789656133719519208,0.0,0.0,0.0,0.10115502029657364,-0.08978256583213806,9.8599214553833,0.002021924825385213,-0.007079088129103184,0.8830147981643677,0.4692782163619995
1789656133720326388,1789656133723032668,0.0,0.0,0.0,0.10115502029657364,-0.08978256583213806,9.8599214553833,0.002021924825385213,-0.007079088129103184,0.8830147981643677,0.4692782163619995
1789656133723514167,1789656133734301715,0.0,0.0,0.0,0.09876082092523575,-0.15263035893440247,9.774328231811523,0.002501383423805237,-0.008294129744172096,0.8830056190490723,0.4692733585834503
1789656133734976271,1789656133736394908,0.0,0.0,0.0,0.09876082092523575,-0.15263035893440247,9.774328231811523,0.002501383423805237,-0.008294129744172096,0.8830056190490723,0.4692733585834503
1789656133739187276,1789656133741668432,0.0,0.0,0.0,0.09876082092523575,-0.15263035893440247,9.774328231811523,0.002501383423805237,-0.008294129744172096,0.8830056190490723,0.4692733585834503
1789656133741860487,1789656133743081382,0.0,0.0,0.0,0.09876082092523575,-0.15263035893440247,9.774328231811523,0.002501383423805237,-0.008294129744172096,0.8830056190490723,0.4692733585834503
1789656133746686636,1789656133756127612,0.0,0.0,0.0,0.10055647045373917,-0.06703764945268631,9.934141159057617,0.0033644242212176323,-0.006753118243068457,0.8830080032348633,0.4692881405353546
1789656133755588646,1789656133757776115,0.0,0.0,0.0,0.10055647045373917,-0.06703764945268631,9.934141159057617,0.0033644242212176323,-0.006753118243068457,0.8830080032348633,0.4692881405353546
1789656133758568271,1789656133762240143,0.0,0.0,0.0,0.10055647045373917,-0.06703764945268631,9.934141159057617,0.0033644242212176323,-0.006753118243068457,0.8830080032348633,0.4692881405353546
1789656133762986874,1789656133776475107,0.0,0.0,0.0,0.07182604819536209,-0.07661445438861847,9.81024169921875,0.003234522184357047,-0.007565837819129229,0.8830051422119141,0.4692820608615875
1789656133777084452,1789656133781950969,0.0,0.0,0.0,0.07182604819536209,-0.07661445438861847,9.81024169921875,0.003234522184357047,-0.007565837819129229,0.8830051422119141,0.4692820608615875
1789656133782499642,1789656133785538586,0.0,0.0,0.0,0.07182604819536209,-0.07661445438861847,9.81024169921875,0.003234522184357047,-0.007565837819129229,0.8830051422119141,0.4692820608615875
1789656133787716663,1789656133797158454,0.0,0.0,0.0,0.1304839849472046,-0.11971008032560349,9.851541519165039,0.002357788849622011,-0.007880144752562046,0.8830084204673767,0.46927574276924133
1789656133797343840,1789656133799263392,0.0,0.0,0.0,0.1304839849472046,-0.11971008032560349,9.851541519165039,0.002357788849622011,-0.007880144752562046,0.8830084204673767,0.46927574276924133
1789656133801663017,1789656133804447141,0.0,0.0,0.0,0.1304839849472046,-0.11971008032560349,9.851541519165039,0.002357788849622011,-0.007880144752562046,0.8830084204673767,0.46927574276924133
1789656133806627311,1789656133818555816,0.0,0.0,0.0,0.08080430328845978,-0.14425064623355865,9.868300437927246,0.0015267591224983335,-0.007021715864539146,0.8830172419548035,0.4692762494087219
1789656133818855153,1789656133822980014,0.0,0.0,0.0,0.08080430328845978,-0.14425064623355865,9.868300437927246,0.0015267591224983335,-0.007021715864539146,0.8830172419548035,0.4692762494087219
1789656133824279920,1789656133827289224,0.0,0.0,0.0,0.08080430328845978,-0.14425064623355865,9.868300437927246,0.0015267591224983335,-0.007021715864539146,0.8830172419548035,0.4692762494087219
1789656133828224453,1789656133838292855,0.0,0.0,0.0,0.1256955862045288,-0.1256955862045288,9.805453300476074,0.0007444731309078634,-0.007565174717456102,0.8830173015594482,0.4692697823047638
1789656133841238652,1789656133843089900,0.0,0.0,0.0,0.1256955862045288,-0.1256955862045288,9.805453300476074,0.0007444731309078634,-0.007565174717456102,0.8830173015594482,0.4692697823047638
1789656133843993951,1789656133845111268,0.0,0.0,0.0,0.1256955862045288,-0.1256955862045288,9.805453300476074,0.0007444731309078634,-0.007565174717456102,0.8830173015594482,0.4692697823047638
1789656133847197643,1789656133860423757,0.0,0.0,0.0,0.04967968538403511,-0.13108253479003906,9.936535835266113,0.0013845522189512849,-0.00712137995287776,0.8830169439315796,0.4692758619785309
1789656133860835397,1789656133864669387,0.0,0.0,0.0,0.04967968538403511,-0.13108253479003906,9.936535835266113,0.0013845522189512849,-0.00712137995287776,0.8830169439315796,0.4692758619785309
1789656133865997248,1789656133869602929,0.0,0.0,0.0,0.04967968538403511,-0.13108253479003906,9.936535835266113,0.0013845522189512849,-0.00712137995287776,0.8830169439315796,0.4692758619785309
1789656133870086096,1789656133880704060,0.0,0.0,0.0,0.06643909960985184,-0.13946224749088287,9.844358444213867,0.0017908038571476936,-0.007946453988552094,0.8830103278160095,0.4692736864089966
1789656133881232411,1789656133886652492,0.0,0.0,0.0,0.06643909960985184,-0.13946224749088287,9.844358444213867,0.0017908038571476936,-0.007946453988552094,0.8830103278160095,0.4692736864089966
1789656133886438150,1789656133889477947,0.0,0.0,0.0,0.06643909960985184,-0.13946224749088287,9.844358444213867,0.0017908038571476936,-0.007946453988552094,0.8830103278160095,0.4692736864089966
1789656133890256931,1789656133901517624,0.0,0.0,0.0,0.12868833541870117,-0.10714052617549896,9.837774276733398,0.003267838852480054,-0.007613358553498983,0.8830030560493469,0.46928486227989197
1789656133901954791,1789656133903394974,0.0,0.0,0.0,0.12868833541870117,-0.10714052617549896,9.837774276733398,0.003267838852480054,-0.007613358553498983,0.8830030560493469,0.46928486227989197
1789656133906710487,1789656133910243899,0.0,0.0,0.0,0.12868833541870117,-0.10714052617549896,9.837774276733398,0.003267838852480054,-0.007613358553498983,0.8830030560493469,0.46928486227989197
1789656133911668816,1789656133922864151,0.0,0.0,0.0,0.040701426565647125,-0.11911153048276901,9.946710586547852,0.0014709857059642673,-0.007898714393377304,0.8830121159553528,0.4692721664905548
1789656133922624577,1789656133925256291,0.0,0.0,0.0,0.040701426565647125,-0.11911153048276901,9.946710586547852,0.0014709857059642673,-0.007898714393377304,0.8830121159553528,0.4692721664905548
1789656133926843197,1789656133930624889,0.0,0.0,0.0,0.040701426565647125,-0.11911153048276901,9.946710586547852,0.0014709857059642673,-0.007898714393377304,0.8830121159553528,0.4692721664905548
1789656133942737594,1789656133945373347,0.0,0.0,0.0,0.11312603205442429,-0.12509703636169434,9.847949981689453,0.0021191423293203115,-0.008302227593958378,0.8830062747001648,0.4692738652229309
1789656133947576970,1789656133950494127,0.0,0.0,0.0,0.11312603205442429,-0.12509703636169434,9.847949981689453,0.0021191423293203115,-0.008302227593958378,0.8830062747001648,0.4692738652229309
1789656133951760521,1789656133963680578,0.0,0.0,0.0,0.07242459803819656,-0.08559270948171616,9.82999324798584,0.0028263884596526623,-0.0071412683464586735,0.8830083012580872,0.46928539872169495
1789656133963719518,1789656133966559794,0.0,0.0,0.0,0.07242459803819656,-0.08559270948171616,9.82999324798584,0.0028263884596526623,-0.0071412683464586735,0.8830083012580872,0.46928539872169495
1789656133967056021,1789656133970433948,0.0,0.0,0.0,0.07242459803819656,-0.08559270948171616,9.82999324798584,0.0028263884596526623,-0.0071412683464586735,0.8830083012580872,0.46928539872169495
1789656133971643115,1789656133984471669,0.0,0.0,0.0,0.11851298063993454,-0.14065934717655182,9.871293067932129,0.0026848556008189917,-0.008749566040933132,0.8830004334449768,0.46927380561828613
1789656133986434627,1789656133989581019,0.0,0.0,0.0,0.11851298063993454,-0.14065934717655182,9.871293067932129,0.0026848556008189917,-0.008749566040933132,0.8830004334449768,0.46927380561828613
1789656133991025963,1789656133994666435,0.0,0.0,0.0,0.11851298063993454,-0.14065934717655182,9.871293067932129,0.0026848556008189917,-0.008749566040933132,0.8830004334449768,0.46927380561828613
1789656133996171864,1789656134005505070,0.0,0.0,0.0,0.07362169772386551,-0.12749123573303223,9.793481826782227,0.00194662029389292,-0.00740492669865489,0.8830124735832214,0.4692780375480652
1789656134006398262,1789656134010283261,0.0,0.0,0.0,0.07362169772386551,-0.12749123573303223,9.793481826782227,0.00194662029389292,-0.00740492669865489,0.8830124735832214,0.4692780375480652
1789656134011545372,1789656134015937693,0.0,0.0,0.0,0.07362169772386551,-0.12749123573303223,9.793481826782227,0.00194662029389292,-0.00740492669865489,0.8830124735832214,0.4692780375480652
1789656134017300675,1789656134026420094,0.0,0.0,0.0,0.0933738648891449,-0.1562216579914093,9.916783332824707,0.0005292141577228904,-0.007870673201978207,0.8830156922340393,0.46926790475845337
1789656134026501014,1789656134029348525,0.0,0.0,0.0,0.0933738648891449,-0.1562216579914093,9.916783332824707,0.0005292141577228904,-0.007870673201978207,0.8830156922340393,0.46926790475845337
1789656134030477474,1789656134033325466,0.0,0.0,0.0,0.0933738648891449,-0.1562216579914093,9.916783332824707,0.0005292141577228904,-0.007870673201978207,0.8830156922340393,0.46926790475845337
1789656134035234731,1789656134047837366,0.0,0.0,0.0,0.10594342648983002,-0.07541735470294952,9.808445930480957,0.0022745197638869286,-0.006977910175919533,0.8830124139785767,0.4692830443382263
1789656134048399987,1789656134052576412,0.0,0.0,0.0,0.10594342648983002,-0.07541735470294952,9.808445930480957,0.0022745197638869286,-0.006977910175919533,0.8830124139785767,0.4692830443382263
1789656134053677739,1789656134056613172,0.0,0.0,0.0,0.10594342648983002,-0.07541735470294952,9.808445930480957,0.0022745197638869286,-0.006977910175919533,0.8830124139785767,0.4692830443382263
1789656134057257362,1789656134068539271,0.0,0.0,0.0,0.08738835901021957,-0.08978256583213806,9.99220085144043,0.0019806113559752703,-0.006031312048435211,0.8830187320709229,0.4692857563495636
1789656134069116825,1789656134072303706,0.0,0.0,0.0,0.08738835901021957,-0.08978256583213806,9.99220085144043,0.0019806113559752703,-0.006031312048435211,0.8830187320709229,0.4692857563495636
1789656134073277040,1789656134075276005,0.0,0.0,0.0,0.08738835901021957,-0.08978256583213806,9.99220085144043,0.0019806113559752703,-0.006031312048435211,0.8830187320709229,0.4692857563495636
1789656134077125506,1789656134089899965,0.0,0.0,0.0,0.10714052617549896,-0.10893617570400238,9.83119010925293,0.00272719981148839,-0.007506528403609991,0.8830070495605469,0.4692824184894562
1789656134089614338,1789656134093439796,0.0,0.0,0.0,0.10714052617549896,-0.10893617570400238,9.83119010925293,0.00272719981148839,-0.007506528403609991,0.8830070495605469,0.4692824184894562
1789656134093379921,1789656134096423729,0.0,0.0,0.0,0.10714052617549896,-0.10893617570400238,9.83119010925293,0.00272719981148839,-0.007506528403609991,0.8830070495605469,0.4692824184894562
1789656134097531225,1789656134110281657,0.0,0.0,0.0,0.15921440720558167,-0.1346738487482071,9.835978507995605,0.0019130691653117537,-0.008233021944761276,0.8830071687698364,0.4692741632461548
1789656134111165420,1789656134114803972,0.0,0.0,0.0,0.15921440720558167,-0.1346738487482071,9.835978507995605,0.0019130691653117537,-0.008233021944761276,0.8830071687698364,0.4692741632461548
1789656134115562762,1789656134119681627,0.0,0.0,0.0,0.15921440720558167,-0.1346738487482071,9.835978507995605,0.0019130691653117537,-0.008233021944761276,0.8830071687698364,0.4692741632461548
1789656134120612241,1789656134130714405,0.0,0.0,0.0,0.06464344263076782,-0.1628057062625885,9.899425506591797,0.001244154293090105,-0.007238142192363739,0.8830161690711975,0.4692758023738861
1789656134131696686,1789656134135385796,0.0,0.0,0.0,0.06464344263076782,-0.1628057062625885,9.899425506591797,0.001244154293090105,-0.007238142192363739,0.8830161690711975,0.4692758023738861
1789656134137353860,1789656134140917829,0.0,0.0,0.0,0.06464344263076782,-0.1628057062625885,9.899425506591797,0.001244154293090105,-0.007238142192363739,0.8830161690711975,0.4692758023738861
1789656134141841941,1789656134151714165,0.0,0.0,0.0,0.12868833541870117,-0.11372458189725876,9.889249801635742,0.0005129952332936227,-0.007324118632823229,0.8830186128616333,0.4692712426185608
1789656134152162428,1789656134154445909,0.0,0.0,0.0,0.12868833541870117,-0.11372458189725876,9.889249801635742,0.0005129952332936227,-0.007324118632823229,0.8830186128616333,0.4692712426185608
1789656134156829021,1789656134158458271,0.0,0.0,0.0,0.12868833541870117,-0.11372458189725876,9.889249801635742,0.0005129952332936227,-0.007324118632823229,0.8830186128616333,0.4692712426185608
1789656134162088729,1789656134172445008,0.0,0.0,0.0,0.09397241473197937,-0.09876082092523575,9.834183692932129,0.0018693966558203101,-0.006859496235847473,0.8830149173736572,0.469281941652298
1789656134172508699,1789656134176491253,0.0,0.0,0.0,0.09397241473197937,-0.09876082092523575,9.834183692932129,0.0018693966558203101,-0.006859496235847473,0.8830149173736572,0.469281941652298
1789656134177492097,1789656134180158632,0.0,0.0,0.0,0.09397241473197937,-0.09876082092523575,9.834183692932129,0.0018693966558203101,-0.006859496235847473,0.8830149173736572,0.469281941652298
1789656134181638529,1789656134194299446,0.0,0.0,0.0,0.09457096457481384,-0.11611878126859665,9.909002304077148,0.0013741097645834088,-0.006279293447732925,0.8830198645591736,0.4692822992801666
1789656134194077361,1789656134197092195,0.0,0.0,0.0,0.09457096457481384,-0.11611878126859665,9.909002304077148,0.0013741097645834088,-0.006279293447732925,0.8830198645591736,0.4692822992801666
1789656134197151643,1789656134200391507,0.0,0.0,0.0,0.09457096457481384,-0.11611878126859665,9.909002304077148,0.0013741097645834088,-0.006279293447732925,0.8830198645591736,0.4692822992801666
1789656134201742985,1789656134215177289,0.0,0.0,0.0,0.14365209639072418,-0.090979665517807,9.883264541625977,0.0032167595345526934,-0.007209856528788805,0.8830056190490723,0.4692867398262024
1789656134214713983,1789656134216596959,0.0,0.0,0.0,0.14365209639072418,-0.090979665517807,9.883264541625977,0.0032167595345526934,-0.007209856528788805,0.8830056190490723,0.4692867398262024
1789656134217746860,1789656134221690474,0.0,0.0,0.0,0.14365209639072418,-0.090979665517807,9.883264541625977,0.0032167595345526934,-0.007209856528788805,0.8830056190490723,0.4692867398262024
1789656134223047139,1789656134235490250,0.0,0.0,0.0,0.09816227108240128,-0.11312603205442429,10.040682792663574,0.0019027244998142123,-0.007636448368430138,0.8830112814903259,0.46927642822265625
1789656134236608454,1789656134239357557,0.0,0.0,0.0,0.09816227108240128,-0.11312603205442429,10.040682792663574,0.0019027244998142123,-0.007636448368430138,0.8830112814903259,0.46927642822265625
1789656134242374577,1789656134244381323,0.0,0.0,0.0,0.09816227108240128,-0.11312603205442429,10.040682792663574,0.0019027244998142123,-0.007636448368430138,0.8830112814903259,0.46927642822265625
1789656134247049710,1789656134257617125,0.0,0.0,0.0,0.11671733111143112,-0.11432313174009323,9.86770248413086,0.0012268493883311749,-0.007894443348050117,0.8830130696296692,0.4692712128162384
1789656134257684540,1789656134260668732,0.0,0.0,0.0,0.11671733111143112,-0.11432313174009323,9.86770248413086,0.0012268493883311749,-0.007894443348050117,0.8830130696296692,0.4692712128162384
1789656134262800489,1789656134265597314,0.0,0.0,0.0,0.11671733111143112,-0.11432313174009323,9.86770248413086,0.0012268493883311749,-0.007894443348050117,0.8830130696296692,0.4692712128162384
1789656134266820576,1789656134276422327,0.0,0.0,0.0,0.13587094843387604,-0.10175357013940811,9.930549621582031,0.0012078034924343228,-0.006890872493386269,0.8830194473266602,0.4692750573158264
1789656134276504599,1789656134279705745,0.0,0.0,0.0,0.13587094843387604,-0.10175357013940811,9.930549621582031,0.0012078034924343228,-0.006890872493386269,0.8830194473266602,0.4692750573158264
1789656134280444174,1789656134283579906,0.0,0.0,0.0,0.13587094843387604,-0.10175357013940811,9.930549621582031,0.0012078034924343228,-0.006890872493386269,0.8830194473266602,0.4692750573158264
1789656134285012470,1789656134297635002,0.0,0.0,0.0,0.10115502029657364,-0.10534487664699554,9.88625717163086,0.001980961300432682,-0.007411451078951359,0.883012592792511,0.46927738189697266
1789656134298712282,1789656134302411525,0.0,0.0,0.0,0.10115502029657364,-0.10534487664699554,9.88625717163086,0.001980961300432682,-0.007411451078951359,0.883012592792511,0.46927738189697266
1789656134303479821,1789656134307661525,0.0,0.0,0.0,0.10115502029657364,-0.10534487664699554,9.88625717163086,0.001980961300432682,-0.007411451078951359,0.883012592792511,0.46927738189697266
1789656134308227612,1789656134318762940,0.0,0.0,0.0,0.42676645517349243,0.2914940416812897,9.925163269042969,0.002383589278906584,-0.008484571240842342,0.8830035328865051,0.4692744016647339
1789656134320611219,1789656134323729962,0.0,0.0,0.0,0.42676645517349243,0.2914940416812897,9.925163269042969,0.002383589278906584,-0.008484571240842342,0.8830035328865051,0.4692744016647339
1789656134324554073,1789656134329060530,0.0,0.0,0.0,0.42676645517349243,0.2914940416812897,9.925163269042969,0.002383589278906584,-0.008484571240842342,0.8830035328865051,0.4692744016647339
1789656134330210932,1789656134339518682,0.02766920067369938,0.02128399908542633,0.026605000719428062,0.5147533416748047,-0.9235633015632629,9.945513725280762,0.003605283796787262,-0.009360970929265022,0.8830889463424683,0.4690891206264496
1789656134341639230,1789656134344646839,0.02766920067369938,0.02128399908542633,0.026605000719428062,0.5147533416748047,-0.9235633015632629,9.945513725280762,0.003605283796787262,-0.009360970929265022,0.8830889463424683,0.4690891206264496
1789656134345576267,1789656134348721577,0.02766920067369938,0.02128399908542633,0.026605000719428062,0.5147533416748047,-0.9235633015632629,9.945513725280762,0.003605283796787262,-0.009360970929265022,0.8830889463424683,0.4690891206264496
1789656134349642520,1789656134360762331,0.004256799817085266,-0.009577799588441849,-0.023412400856614113,-0.33279404044151306,0.74040687084198,9.642048835754395,0.0023055931087583303,-0.008263996802270412,0.8830822706222534,0.4691304862499237
1789656134361339106,1789656134364497902,0.004256799817085266,-0.009577799588441849,-0.023412400856614113,-0.33279404044151306,0.74040687084198,9.642048835754395,0.0023055931087583303,-0.008263996802270412,0.8830822706222534,0.4691304862499237
1789656134365375088,1789656134368163595,0.004256799817085266,-0.009577799588441849,-0.023412400856614113,-0.33279404044151306,0.74040687084198,9.642048835754395,0.0023055931087583303,-0.008263996802270412,0.8830822706222534,0.4691304862499237
1789656134368177360,1789656134381608440,0.0,-0.011706200428307056,0.0,0.07122749835252762,-0.5859808325767517,10.459070205688477,0.0007028180407360196,-0.008701874874532223,0.8830149173736572,0.46925461292266846
1789656134382396036,1789656134385747702,0.0,-0.011706200428307056,0.0,0.07122749835252762,-0.5859808325767517,10.459070205688477,0.0007028180407360196,-0.008701874874532223,0.8830149173736572,0.46925461292266846
1789656134387806524,1789656134391069304,0.0,-0.011706200428307056,0.0,0.07122749835252762,-0.5859808325767517,10.459070205688477,0.0007028180407360196,-0.008701874874532223,0.8830149173736572,0.46925461292266846
1789656134392570672,1789656134401803505,0.0,-0.012770400382578373,-0.004256799817085266,-0.07362169772386551,0.1346738487482071,9.001001358032227,3.3119922591140494e-05,-0.009221933782100677,0.8830361366271973,0.46920523047447205
1789656134401796150,1789656134405456989,0.0,-0.012770400382578373,-0.004256799817085266,-0.07362169772386551,0.1346738487482071,9.001001358032227,3.3119922591140494e-05,-0.009221933782100677,0.8830361366271973,0.46920523047447205
1789656134407203766,1789656134409181557,0.0,-0.012770400382578373,-0.004256799817085266,-0.07362169772386551,0.1346738487482071,9.001001358032227,3.3119922591140494e-05,-0.009221933782100677,0.8830361366271973,0.46920523047447205
1789656134411929196,1789656134423075387,0.0,0.0,0.007449400145560503,0.17896656692028046,-0.6937199234962463,9.703699111938477,0.0011480479734018445,-0.010302693583071232,0.8830551505088806,0.46914541721343994
1789656134422794614,1789656134425585418,0.0,0.0,0.007449400145560503,0.17896656692028046,-0.6937199234962463,9.703699111938477,0.0011480479734018445,-0.010302693583071232,0.8830551505088806,0.46914541721343994
1789656134428015269,1789656134429738870,0.0,0.0,0.007449400145560503,0.17896656692028046,-0.6937199234962463,9.703699111938477,0.0011480479734018445,-0.010302693583071232,0.8830551505088806,0.46914541721343994
1789656134432011885,1789656134443957751,0.0,-0.004256799817085266,-0.008513599634170532,-0.013766659423708916,0.5057750940322876,10.216058731079102,0.002035951241850853,-0.008425530046224594,0.8830642104148865,0.46916311979293823
1789656134444432950,1789656134446754557,0.0,-0.004256799817085266,-0.008513599634170532,-0.013766659423708916,0.5057750940322876,10.216058731079102,0.002035951241850853,-0.008425530046224594,0.8830642104148865,0.46916311979293823
1789656134447609902,1789656134450842170,0.0,-0.004256799817085266,-0.008513599634170532,-0.013766659423708916,0.5057750940322876,10.216058731079102,0.002035951241850853,-0.008425530046224594,0.8830642104148865,0.46916311979293823
1789656134451918747,1789656134464750228,0.0,0.0,-0.007449400145560503,0.28730419278144836,-0.6602011322975159,10.16877269744873,0.001021718606352806,-0.010176235809922218,0.8830059170722961,0.46924132108688354
1789656134465318871,1789656134467524989,0.0,0.0,-0.007449400145560503,0.28730419278144836,-0.6602011322975159,10.16877269744873,0.001021718606352806,-0.010176235809922218,0.8830059170722961,0.46924132108688354
1789656134468303860,1789656134471560823,0.0,0.0,-0.007449400145560503,0.28730419278144836,-0.6602011322975159,10.16877269744873,0.001021718606352806,-0.010176235809922218,0.8830059170722961,0.46924132108688354
1789656134472343733,1789656134474325395,0.0,0.0,-0.007449400145560503,0.28730419278144836,-0.6602011322975159,10.16877269744873,0.001021718606352806,-0.010176235809922218,0.8830059170722961,0.46924132108688354
1789656134476904804,1789656134485814550,0.0,0.009577799588441849,-0.007449400145560503,0.015562310814857483,0.849941611289978,9.531316757202148,0.002191591542214155,-0.00852398481220007,0.8829632997512817,0.46935027837753296
1789656134486295122,1789656134489066215,0.0,0.009577799588441849,-0.007449400145560503,0.015562310814857483,0.849941611289978,9.531316757202148,0.002191591542214155,-0.00852398481220007,0.8829632997512817,0.46935027837753296
1789656134489276980,1789656134492757251,0.0,0.009577799588441849,-0.007449400145560503,0.015562310814857483,0.849941611289978,9.531316757202148,0.002191591542214155,-0.00852398481220007,0.8829632997512817,0.46935027837753296
1789656134493633362,1789656134506674627,0.005320999771356583,0.0,0.0063852001912891865,0.005985504016280174,-0.47465047240257263,9.683947563171387,0.0003161280765198171,-0.00901541393250227,0.882979691028595,0.46931517124176025
1789656134507878475,1789656134511769143,0.005320999771356583,0.0,0.0063852001912891865,0.005985504016280174,-0.47465047240257263,9.683947563171387,0.0003161280765198171,-0.00901541393250227,0.882979691028595,0.46931517124176025
1789656134512694977,1789656134516731163,0.005320999771356583,0.0,0.0063852001912891865,0.005985504016280174,-0.47465047240257263,9.683947563171387,0.0003161280765198171,-0.00901541393250227,0.882979691028595,0.46931517124176025
1789656134516858081,1789656134528175634,0.004256799817085266,0.0,0.008513599634170532,0.20350714027881622,0.090979665517807,9.865906715393066,0.0022478930186480284,-0.008520589210093021,0.8830111026763916,0.4692601263523102
1789656134528762154,1789656134531994663,0.004256799817085266,0.0,0.008513599634170532,0.20350714027881622,0.090979665517807,9.865906715393066,0.0022478930186480284,-0.008520589210093021,0.8830111026763916,0.4692601263523102
1789656134534685263,1789656134536543415,0.004256799817085266,0.0,0.008513599634170532,0.20350714027881622,0.090979665517807,9.865906715393066,0.0022478930186480284,-0.008520589210093021,0.8830111026763916,0.4692601263523102
1789656134537620066,1789656134549949004,0.005320999771356583,0.005320999771356583,0.009577799588441849,0.3172317147254944,-0.47884032130241394,10.061034202575684,0.002381925703957677,-0.010538929142057896,0.8830462694168091,0.4691525101661682
1789656134550010212,1789656134553662159,0.005320999771356583,0.005320999771356583,0.009577799588441849,0.3172317147254944,-0.47884032130241394,10.061034202575684,0.002381925703957677,-0.010538929142057896,0.8830462694168091,0.4691525101661682
1789656134555655252,1789656134558452522,0.005320999771356583,0.005320999771356583,0.009577799588441849,0.3172317147254944,-0.47884032130241394,10.061034202575684,0.002381925703957677,-0.010538929142057896,0.8830462694168091,0.4691525101661682
1789656134558371083,1789656134569615515,0.011706200428307056,0.0,0.0,0.20470423996448517,-0.25737667083740234,9.604339599609375,0.0036065697204321623,-0.010511448606848717,0.8830624222755432,0.4691148102283478
1789656134570422008,1789656134573553794,0.011706200428307056,0.0,0.0,0.20470423996448517,-0.25737667083740234,9.604339599609375,0.0036065697204321623,-0.010511448606848717,0.8830624222755432,0.4691148102283478
1789656134574399746,1789656134576540728,0.011706200428307056,0.0,0.0,0.20470423996448517,-0.25737667083740234,9.604339599609375,0.0036065697204321623,-0.010511448606848717,0.8830624222755432,0.4691148102283478
1789656134577608524,1789656134591475326,0.004256799817085266,-0.007449400145560503,-0.031925998628139496,0.06224924325942993,0.2298433631658554,9.871293067932129,0.0035337258595973253,-0.008409866131842136,0.8829805850982666,0.46931183338165283
1789656134591600651,1789656134596053014,0.004256799817085266,-0.007449400145560503,-0.031925998628139496,0.06224924325942993,0.2298433631658554,9.871293067932129,0.0035337258595973253,-0.008409866131842136,0.8829805850982666,0.46931183338165283
1789656134595823742,1789656134599587157,0.004256799817085266,-0.007449400145560503,-0.031925998628139496,0.06224924325942993,0.2298433631658554,9.871293067932129,0.0035337258595973253,-0.008409866131842136,0.8829805850982666,0.46931183338165283
1789656134600514788,1789656134610742963,0.0,-0.0063852001912891865,-0.05214580148458481,-0.09217676520347595,-0.02753331884741783,9.88086986541748,0.0023087661247700453,-0.006807324942201376,0.8827487230300903,0.46978113055229187
1789656134611576984,1789656134613873656,0.0,-0.0063852001912891865,-0.05214580148458481,-0.09217676520347595,-0.02753331884741783,9.88086986541748,0.0023087661247700453,-0.006807324942201376,0.8827487230300903,0.46978113055229187
1789656134614653619,1789656134617662155,0.0,-0.0063852001912891865,-0.05214580148458481,-0.09217676520347595,-0.02753331884741783,9.88086986541748,0.0023087661247700453,-0.006807324942201376,0.8827487230300903,0.46978113055229187
1789656134618574799,1789656134623085739,0.0,-0.0063852001912891865,-0.05214580148458481,-0.09217676520347595,-0.02753331884741783,9.88086986541748,0.0023087661247700453,-0.006807324942201376,0.8827487230300903,0.46978113055229187
1789656134622493792,1789656134632647660,-0.004256799817085266,0.0,-0.03086180053651333,-0.10714052617549896,-0.18315643072128296,9.822811126708984,0.0004435784067027271,-0.00602958956733346,0.882570207118988,0.47013264894485474
1789656134633101352,1789656134637231814,-0.004256799817085266,0.0,-0.03086180053651333,-0.10714052617549896,-0.18315643072128296,9.822811126708984,0.0004435784067027271,-0.00602958956733346,0.882570207118988,0.47013264894485474
1789656134638597816,1789656134642154968,-0.004256799817085266,0.0,-0.03086180053651333,-0.10714052617549896,-0.18315643072128296,9.822811126708984,0.0004435784067027271,-0.00602958956733346,0.882570207118988,0.47013264894485474
1789656134642376423,1789656134653566519,0.0,-0.0063852001912891865,-0.01383460033684969,0.23403321206569672,0.22685061395168304,9.674968719482422,0.001604621415026486,-0.004392366856336594,0.882491409778595,0.47029611468315125
1789656134653754165,1789656134658904034,0.0,-0.0063852001912891865,-0.01383460033684969,0.23403321206569672,0.22685061395168304,9.674968719482422,0.001604621415026486,-0.004392366856336594,0.882491409778595,0.47029611468315125
1789656134658739490,1789656134663458344,0.0,-0.0063852001912891865,-0.01383460033684969,0.23403321206569672,0.22685061395168304,9.674968719482422,0.001604621415026486,-0.004392366856336594,0.882491409778595,0.47029611468315125
1789656134664022781,1789656134673714474,0.0,-0.004256799817085266,-0.03618279844522476,0.3597288131713867,-0.05925649031996727,9.971251487731934,0.0027735529001802206,-0.006000076420605183,0.8823516964912415,0.4705348610877991
1789656134674474708,1789656134676623137,0.0,-0.004256799817085266,-0.03618279844522476,0.3597288131713867,-0.05925649031996727,9.971251487731934,0.0027735529001802206,-0.006000076420605183,0.8823516964912415,0.4705348610877991
1789656134677521387,1789656134680737779,0.0,-0.004256799817085266,-0.03618279844522476,0.3597288131713867,-0.05925649031996727,9.971251487731934,0.0027735529001802206,-0.006000076420605183,0.8823516964912415,0.4705348610877991
1789656134682494319,1789656134696040665,0.005320999771356583,0.0,-0.07662239670753479,0.6967126727104187,-0.5045779943466187,9.898228645324707,0.003928291145712137,-0.007726625539362431,0.8820081353187561,0.4711453914642334
1789656134695617485,1789656134700620206,0.005320999771356583,0.0,-0.07662239670753479,0.6967126727104187,-0.5045779943466187,9.898228645324707,0.003928291145712137,-0.007726625539362431,0.8820081353187561,0.4711453914642334
1789656134700928750,1789656134704616469,0.005320999771356583,0.0,-0.07662239670753479,0.6967126727104187,-0.5045779943466187,9.898228645324707,0.003928291145712137,-0.007726625539362431,0.8820081353187561,0.4711453914642334
1789656134705399953,1789656134715858994,0.0,0.004256799817085266,-0.09577800333499908,0.7523778676986694,-0.33997663855552673,9.967659950256348,0.004891853779554367,-0.009505518712103367,0.8815450072288513,0.47196999192237854
1789656134716786495,1789656134720089476,0.0,0.004256799817085266,-0.09577800333499908,0.7523778676986694,-0.33997663855552673,9.967659950256348,0.004891853779554367,-0.009505518712103367,0.8815450072288513,0.47196999192237854
1789656134720872126,1789656134722733594,0.0,0.004256799817085266,-0.09577800333499908,0.7523778676986694,-0.33997663855552673,9.967659950256348,0.004891853779554367,-0.009505518712103367,0.8815450072288513,0.47196999192237854
1789656134724476499,1789656134736743099,0.0,0.007449400145560503,-0.1553732007741928,1.0301052331924438,-0.047884032130241394,10.050259590148926,0.0066932616755366325,-0.010424230247735977,0.8808674812316895,0.4731918275356293
1789656134738186500,1789656134740715797,0.0,0.007449400145560503,-0.1553732007741928,1.0301052331924438,-0.047884032130241394,10.050259590148926,0.0066932616755366325,-0.010424230247735977,0.8808674812316895,0.4731918275356293
1789656134743939896,1789656134746566267,0.0,0.007449400145560503,-0.1553732007741928,1.0301052331924438,-0.047884032130241394,10.050259590148926,0.0066932616755366325,-0.010424230247735977,0.8808674812316895,0.4731918275356293
1789656134747542695,1789656134757797546,0.011706200428307056,0.0,-0.28626981377601624,1.003769040107727,0.14604629576206207,10.221445083618164,0.008767160587012768,-0.010658158920705318,0.8796496987342834,0.47541287541389465
1789656134758501407,1789656134762709195,0.011706200428307056,0.0,-0.28626981377601624,1.003769040107727,0.14604629576206207,10.221445083618164,0.008767160587012768,-0.010658158920705318,0.8796496987342834,0.47541287541389465
1789656134763210275,1789656134766926617,0.011706200428307056,0.0,-0.28626981377601624,1.003769040107727,0.14604629576206207,10.221445083618164,0.008767160587012768,-0.010658158920705318,0.8796496987342834,0.47541287541389465
1789656134767619214,1789656134777719303,0.0,-0.031925998628139496,-0.45973441004753113,0.5973533391952515,-0.1430535465478897,10.015543937683105,0.010862182825803757,-0.011607402004301548,0.8775855898857117,0.47914746403694153
1789656134778466458,1789656134781764233,0.0,-0.031925998628139496,-0.45973441004753113,0.5973533391952515,-0.1430535465478897,10.015543937683105,0.010862182825803757,-0.011607402004301548,0.8775855898857117,0.47914746403694153
