t_ns,t_bag_ns,wx,wy,wz,ax,ay,az,qx,qy,qz,qw
1789658825843612623,1789658825869688253,0.010641999542713165,-0.03405439853668213,0.09258539974689484,0.07362169772386551,-0.208295539021492,9.999981880187988,0.0062002139165997505,-0.009235085919499397,0.9733469486236572,-0.22904887795448303
1789658825852164888,1789658825870257528,0.010641999542713165,-0.03405439853668213,0.09258539974689484,0.07362169772386551,-0.208295539021492,9.999981880187988,0.0062002139165997505,-0.009235085919499397,0.9733469486236572,-0.22904887795448303
1789658825856465028,1789658825870848377,0.010641999542713165,-0.03405439853668213,0.09258539974689484,0.07362169772386551,-0.208295539021492,9.999981880187988,0.0062002139165997505,-0.009235085919499397,0.9733469486236572,-0.22904887795448303
1789658825861439126,1789658825872061963,0.011706200428307056,-0.03299019858241081,0.09152120351791382,0.06883329898118973,-0.193331778049469,9.813234329223633,0.0062735616229474545,-0.008177187293767929,0.9731358885765076,-0.2299821823835373
1789658825872842897,1789658825876956452,0.011706200428307056,-0.03299019858241081,0.09152120351791382,0.06883329898118973,-0.193331778049469,9.813234329223633,0.0062735616229474545,-0.008177187293767929,0.9731358885765076,-0.2299821823835373
1789658825879983305,1789658825892838506,0.012770400382578373,-0.03086180053651333,0.09258539974689484,0.10893617570400238,-0.1759738177061081,9.976638793945312,0.006680930498987436,-0.008748602122068405,0.9729045629501343,-0.23092621564865112
1789658825892344191,1789658825894654588,0.012770400382578373,-0.03086180053651333,0.09258539974689484,0.10893617570400238,-0.1759738177061081,9.976638793945312,0.006680930498987436,-0.008748602122068405,0.9729045629501343,-0.23092621564865112
1789658825896390044,1789658825899652963,0.012770400382578373,-0.03086180053651333,0.09258539974689484,0.10893617570400238,-0.1759738177061081,9.976638793945312,0.006680930498987436,-0.008748602122068405,0.9729045629501343,-0.23092621564865112
1789658825901576523,1789658825913826208,0.012770400382578373,-0.028733400627970695,0.09258539974689484,0.035913024097681046,-0.23044191300868988,9.876081466674805,0.0052892970852553844,-0.009084935300052166,0.9726812839508057,-0.23188772797584534
1789658825914993481,1789658825919214791,0.012770400382578373,-0.028733400627970695,0.09258539974689484,0.035913024097681046,-0.23044191300868988,9.876081466674805,0.0052892970852553844,-0.009084935300052166,0.9726812839508057,-0.23188772797584534
1789658825924207943,1789658825933842335,0.011706200428307056,-0.031925998628139496,0.09152120351791382,0.09935937076807022,-0.17896656692028046,9.962272644042969,0.0061866347678005695,-0.00750688137486577,0.9724684357643127,-0.23281283676624298
1789658825934400833,1789658825935789838,0.011706200428307056,-0.031925998628139496,0.09152120351791382,0.09935937076807022,-0.17896656692028046,9.962272644042969,0.0061866347678005695,-0.00750688137486577,0.9724684357643127,-0.23281283676624298
1789658825936549570,1789658825938774878,0.011706200428307056,-0.031925998628139496,0.09152120351791382,0.09935937076807022,-0.17896656692028046,9.962272644042969,0.0061866347678005695,-0.00750688137486577,0.9724684357643127,-0.23281283676624298
1789658825941467559,1789658825954984883,0.012770400382578373,-0.03086180053651333,0.09258539974689484,0.04429272934794426,-0.22625206410884857,9.915586471557617,0.0058217961341142654,-0.009241482242941856,0.9722278714179993,-0.2337627410888672
1789658825956096565,1789658825959965296,0.012770400382578373,-0.03086180053651333,0.09258539974689484,0.04429272934794426,-0.22625206410884857,9.915586471557617,0.0058217961341142654,-0.009241482242941856,0.9722278714179993,-0.2337627410888672
1789658825961354597,1789658825963872210,0.012770400382578373,-0.03086180053651333,0.09258539974689484,0.04429272934794426,-0.22625206410884857,9.915586471557617,0.0058217961341142654,-0.009241482242941856,0.9722278714179993,-0.2337627410888672
1789658825966436117,1789658825976130765,0.012770400382578373,-0.031925998628139496,0.09364960342645645,0.10594342648983002,-0.228047713637352,9.812036514282227,0.006763096433132887,-0.008224676363170147,0.9720053672790527,-0.2346990704536438
1789658825975891237,1789658825979001402,0.012770400382578373,-0.031925998628139496,0.09364960342645645,0.10594342648983002,-0.228047713637352,9.812036514282227,0.006763096433132887,-0.008224676363170147,0.9720053672790527,-0.2346990704536438
1789658825979329131,1789658825983633142,0.012770400382578373,-0.031925998628139496,0.09364960342645645,0.10594342648983002,-0.228047713637352,9.812036514282227,0.006763096433132887,-0.008224676363170147,0.9720053672790527,-0.2346990704536438
1789658825984197158,1789658825996911512,0.011706200428307056,-0.03086180053651333,0.09258539974689484,0.11611878126859665,-0.2364274114370346,9.869498252868652,0.006632967386394739,-0.00926092080771923,0.9717656970024109,-0.23565460741519928
1789658825997478399,1789658826001929812,0.011706200428307056,-0.03086180053651333,0.09258539974689484,0.11611878126859665,-0.2364274114370346,9.869498252868652,0.006632967386394739,-0.00926092080771923,0.9717656970024109,-0.23565460741519928
1789658826002365944,1789658826005762117,0.011706200428307056,-0.03086180053651333,0.09258539974689484,0.11611878126859665,-0.2364274114370346,9.869498252868652,0.006632967386394739,-0.00926092080771923,0.9717656970024109,-0.23565460741519928
1789658826006791376,1789658826018327273,0.012770400382578373,-0.03086180053651333,0.09152120351791382,0.06823474913835526,-0.17477671802043915,9.938929557800293,0.00550790736451745,-0.008433020673692226,0.9715517163276672,-0.2365950495004654
1789658826017635706,1789658826022192948,0.012770400382578373,-0.03086180053651333,0.09152120351791382,0.06823474913835526,-0.17477671802043915,9.938929557800293,0.00550790736451745,-0.008433020673692226,0.9715517163276672,-0.2365950495004654
1789658826021526787,1789658826024502661,0.012770400382578373,-0.03086180053651333,0.09152120351791382,0.06823474913835526,-0.17477671802043915,9.938929557800293,0.00550790736451745,-0.008433020673692226,0.9715517163276672,-0.2365950495004654
1789658826026522847,1789658826037840418,0.010641999542713165,-0.03299019858241081,0.09152120351791382,0.0652419924736023,-0.2190694510936737,9.892841339111328,0.006781145464628935,-0.008764666505157948,0.9713142514228821,-0.23752301931381226
1789658826038507227,1789658826041005266,0.010641999542713165,-0.03299019858241081,0.09152120351791382,0.0652419924736023,-0.2190694510936737,9.892841339111328,0.006781145464628935,-0.008764666505157948,0.9713142514228821,-0.23752301931381226
1789658826042315793,1789658826045137654,0.010641999542713165,-0.03299019858241081,0.09152120351791382,0.0652419924736023,-0.2190694510936737,9.892841339111328,0.006781145464628935,-0.008764666505157948,0.9713142514228821,-0.23752301931381226
1789658826048392573,1789658826059218440,0.011706200428307056,-0.031925998628139496,0.09258539974689484,0.053270988166332245,-0.23283611238002777,10.015543937683105,0.005612961947917938,-0.009660623036324978,0.971079409122467,-0.2384772002696991
1789658826059693015,1789658826062543356,0.011706200428307056,-0.031925998628139496,0.09258539974689484,0.053270988166332245,-0.23283611238002777,10.015543937683105,0.005612961947917938,-0.009660623036324978,0.971079409122467,-0.2384772002696991
1789658826062289773,1789658826065909975,0.011706200428307056,-0.031925998628139496,0.09258539974689484,0.053270988166332245,-0.23283611238002777,10.015543937683105,0.005612961947917938,-0.009660623036324978,0.971079409122467,-0.2384772002696991
1789658826066494380,1789658826069751854,0.011706200428307056,-0.031925998628139496,0.09258539974689484,0.053270988166332245,-0.23283611238002777,10.015543937683105,0.005612961947917938,-0.009660623036324978,0.971079409122467,-0.2384772002696991
1789658826071369759,1789658826080347693,0.011706200428307056,-0.03086180053651333,0.09152120351791382,0.060453593730926514,-0.2190694510936737,9.888052940368652,0.006461038254201412,-0.009052054025232792,0.970851719379425,-0.2394046038389206
1789658826084161092,1789658826086977730,0.011706200428307056,-0.03086180053651333,0.09152120351791382,0.060453593730926514,-0.2190694510936737,9.888052940368652,0.006461038254201412,-0.009052054025232792,0.970851719379425,-0.2394046038389206
1789658826087638206,1789658826101130551,0.014898800291121006,-0.03086180053651333,0.09152120351791382,0.11611878126859665,-0.22445639967918396,9.976638793945312,0.006168719381093979,-0.009471004828810692,0.9706180095672607,-0.24034202098846436
1789658826101801082,1789658826106137351,0.014898800291121006,-0.03086180053651333,0.09152120351791382,0.11611878126859665,-0.22445639967918396,9.976638793945312,0.006168719381093979,-0.009471004828810692,0.9706180095672607,-0.24034202098846436
1789658826106796401,1789658826110106837,0.014898800291121006,-0.03086180053651333,0.09152120351791382,0.11611878126859665,-0.22445639967918396,9.976638793945312,0.006168719381093979,-0.009471004828810692,0.9706180095672607,-0.24034202098846436
1789658826111646707,1789658826122160326,0.012770400382578373,-0.028733400627970695,0.09258539974689484,0.1364694982767105,-0.17717091739177704,9.957484245300293,0.005615299567580223,-0.008954592980444431,0.9703933596611023,-0.24128101766109467
1789658826121931371,1789658826124051554,0.012770400382578373,-0.028733400627970695,0.09258539974689484,0.1364694982767105,-0.17717091739177704,9.957484245300293,0.005615299567580223,-0.008954592980444431,0.9703933596611023,-0.24128101766109467
1789658826126486854,1789658826130176276,0.012770400382578373,-0.028733400627970695,0.09258539974689484,0.1364694982767105,-0.17717091739177704,9.957484245300293,0.005615299567580223,-0.008954592980444431,0.9703933596611023,-0.24128101766109467
1789658826131473396,1789658826143583679,0.011706200428307056,-0.03086180053651333,0.09258539974689484,0.17178396880626678,-0.17238251864910126,9.795876502990723,0.0052007511258125305,-0.008942674845457077,0.9701585173606873,-0.2422327697277069
1789658826143132344,1789658826147210974,0.011706200428307056,-0.03086180053651333,0.09258539974689484,0.17178396880626678,-0.17238251864910126,9.795876502990723,0.0052007511258125305,-0.008942674845457077,0.9701585173606873,-0.2422327697277069
1789658826149967263,1789658826153024078,0.011706200428307056,-0.03086180053651333,0.09258539974689484,0.17178396880626678,-0.17238251864910126,9.795876502990723,0.0052007511258125305,-0.008942674845457077,0.9701585173606873,-0.2422327697277069
1789658826153529041,1789658826163870592,0.012770400382578373,-0.03299019858241081,0.09258539974689484,0.08379705995321274,-0.20350714027881622,10.025120735168457,0.005277634132653475,-0.009519005194306374,0.9699168801307678,-0.2431754320859909
1789658826163587010,1789658826165801282,0.012770400382578373,-0.03299019858241081,0.09258539974689484,0.08379705995321274,-0.20350714027881622,10.025120735168457,0.005277634132653475,-0.009519005194306374,0.9699168801307678,-0.2431754320859909
1789658826166403704,1789658826169727195,0.012770400382578373,-0.03299019858241081,0.09258539974689484,0.08379705995321274,-0.20350714027881622,10.025120735168457,0.005277634132653475,-0.009519005194306374,0.9699168801307678,-0.2431754320859909
1789658826171386524,1789658826184175746,0.011706200428307056,-0.03086180053651333,0.09258539974689484,0.035913024097681046,-0.22086510062217712,9.946112632751465,0.004420807585120201,-0.009344986639916897,0.9696829915046692,-0.24413001537322998
1789658826184081619,1789658826188383649,0.011706200428307056,-0.03086180053651333,0.09258539974689484,0.035913024097681046,-0.22086510062217712,9.946112632751465,0.004420807585120201,-0.009344986639916897,0.9696829915046692,-0.24413001537322998
1789658826187649361,1789658826191308691,0.011706200428307056,-0.03086180053651333,0.09258539974689484,0.035913024097681046,-0.22086510062217712,9.946112632751465,0.004420807585120201,-0.009344986639916897,0.9696829915046692,-0.24413001537322998
1789658826192147586,1789658826205047545,0.012770400382578373,-0.029797600582242012,0.0904569998383522,0.07242459803819656,-0.228047713637352,9.916783332824707,0.0048879291862249374,-0.010371074080467224,0.9694367051124573,-0.2450558990240097
1789658826205627450,1789658826210541827,0.012770400382578373,-0.029797600582242012,0.0904569998383522,0.07242459803819656,-0.228047713637352,9.916783332824707,0.0048879291862249374,-0.010371074080467224,0.9694367051124573,-0.2450558990240097
1789658826210833243,1789658826218193161,0.012770400382578373,-0.029797600582242012,0.0904569998383522,0.07242459803819656,-0.228047713637352,9.916783332824707,0.0048879291862249374,-0.010371074080467224,0.9694367051124573,-0.2450558990240097
1789658826218817028,1789658826225928177,0.012770400382578373,-0.029797600582242012,0.09152120351791382,0.07302314788103104,-0.16819266974925995,9.967061042785645,0.004525471944361925,-0.010610360652208328,0.9691989421844482,-0.24599111080169678
1789658826226456177,1789658826228688892,0.012770400382578373,-0.029797600582242012,0.09152120351791382,0.07302314788103104,-0.16819266974925995,9.967061042785645,0.004525471944361925,-0.010610360652208328,0.9691989421844482,-0.24599111080169678
1789658826231398924,1789658826234683786,0.012770400382578373,-0.029797600582242012,0.09152120351791382,0.07302314788103104,-0.16819266974925995,9.967061042785645,0.004525471944361925,-0.010610360652208328,0.9691989421844482,-0.24599111080169678
1789658826236436278,1789658826246979544,0.010641999542713165,-0.028733400627970695,0.09152120351791382,0.09696516394615173,-0.1801636815071106,9.835380554199219,0.005415142513811588,-0.00866397749632597,0.9689781069755554,-0.24691776931285858
1789658826246916287,1789658826248925714,0.010641999542713165,-0.028733400627970695,0.09152120351791382,0.09696516394615173,-0.1801636815071106,9.835380554199219,0.005415142513811588,-0.00866397749632597,0.9689781069755554,-0.24691776931285858
1789658826251638579,1789658826253790409,0.010641999542713165,-0.028733400627970695,0.09152120351791382,0.09696516394615173,-0.1801636815071106,9.835380554199219,0.005415142513811588,-0.00866397749632597,0.9689781069755554,-0.24691776931285858
1789658826256788559,1789658826267957506,0.011706200428307056,-0.031925998628139496,0.09258539974689484,0.10235211998224258,-0.17178396880626678,9.959280014038086,0.005171175580471754,-0.008955870755016804,0.9687343239784241,-0.24786782264709473
1789658826267877028,1789658826269780181,0.011706200428307056,-0.031925998628139496,0.09258539974689484,0.10235211998224258,-0.17178396880626678,9.959280014038086,0.005171175580471754,-0.008955870755016804,0.9687343239784241,-0.24786782264709473
1789658826271356457,1789658826274624506,0.011706200428307056,-0.031925998628139496,0.09258539974689484,0.10235211998224258,-0.17178396880626678,9.959280014038086,0.005171175580471754,-0.008955870755016804,0.9687343239784241,-0.24786782264709473
1789658826276813945,1789658826288920228,0.011706200428307056,-0.031925998628139496,0.09258539974689484,0.02753331884741783,-0.17477671802043915,9.977835655212402,0.0061392998322844505,-0.008417686447501183,0.9684927463531494,-0.24880649149417877
1789658826288867490,1789658826291426915,0.011706200428307056,-0.031925998628139496,0.09258539974689484,0.02753331884741783,-0.17477671802043915,9.977835655212402,0.0061392998322844505,-0.008417686447501183,0.9684927463531494,-0.24880649149417877
1789658826292298162,1789658826295931234,0.011706200428307056,-0.031925998628139496,0.09258539974689484,0.02753331884741783,-0.17477671802043915,9.977835655212402,0.0061392998322844505,-0.008417686447501183,0.9684927463531494,-0.24880649149417877
1789658826296618949,1789658826309952337,0.012770400382578373,-0.029797600582242012,0.09258539974689484,0.12449848651885986,-0.20949263870716095,9.906009674072266,0.006343330256640911,-0.009227670729160309,0.9682417511940002,-0.24974755942821503
1789658826310688625,1789658826316295885,0.012770400382578373,-0.029797600582242012,0.09258539974689484,0.12449848651885986,-0.20949263870716095,9.906009674072266,0.006343330256640911,-0.009227670729160309,0.9682417511940002,-0.24974755942821503
1789658826317333254,1789658826329782859,0.012770400382578373,-0.029797600582242012,0.09152120351791382,0.08858545869588852,-0.17238251864910126,9.983820915222168,0.006052861455827951,-0.009557218290865421,0.9679974913597107,-0.25068795680999756
1789658826330476630,1789658826332822619,0.012770400382578373,-0.029797600582242012,0.09152120351791382,0.08858545869588852,-0.17238251864910126,9.983820915222168,0.006052861455827951,-0.009557218290865421,0.9679974913597107,-0.25068795680999756
1789658826333293158,1789658826336802216,0.012770400382578373,-0.029797600582242012,0.09152120351791382,0.08858545869588852,-0.17238251864910126,9.983820915222168,0.006052861455827951,-0.009557218290865421,0.9679974913597107,-0.25068795680999756
1789658826337501394,1789658826339941306,0.012770400382578373,-0.029797600582242012,0.09152120351791382,0.08858545869588852,-0.17238251864910126,9.983820915222168,0.006052861455827951,-0.009557218290865421,0.9679974913597107,-0.25068795680999756
1789658826341577524,1789658826356028371,0.011706200428307056,-0.029797600582242012,0.09152120351791382,0.15741875767707825,-0.18794482946395874,9.823409080505371,0.007091721054166555,-0.007830395363271236,0.9677684307098389,-0.25160297751426697
1789658826352296617,1789658826358204125,0.011706200428307056,-0.029797600582242012,0.09152120351791382,0.15741875767707825,-0.18794482946395874,9.823409080505371,0.007091721054166555,-0.007830395363271236,0.9677684307098389,-0.25160297751426697
1789658826357222383,1789658826359901916,0.011706200428307056,-0.029797600582242012,0.09152120351791382,0.15741875767707825,-0.18794482946395874,9.823409080505371,0.007091721054166555,-0.007830395363271236,0.9677684307098389,-0.25160297751426697
1789658826361348160,1789658826372139324,0.011706200428307056,-0.029797600582242012,0.09152120351791382,0.07481880486011505,-0.14903905987739563,10.075997352600098,0.005979582201689482,-0.0077078077010810375,0.9675318002700806,-0.2525438964366913
1789658826371893926,1789658826374244378,0.011706200428307056,-0.029797600582242012,0.09152120351791382,0.07481880486011505,-0.14903905987739563,10.075997352600098,0.005979582201689482,-0.0077078077010810375,0.9675318002700806,-0.2525438964366913
1789658826376476667,1789658826379014594,0.011706200428307056,-0.029797600582242012,0.09152120351791382,0.07481880486011505,-0.14903905987739563,10.075997352600098,0.005979582201689482,-0.0077078077010810375,0.9675318002700806,-0.2525438964366913
1789658826381467097,1789658826393997755,0.014898800291121006,-0.03086180053651333,0.09258539974689484,0.05446808785200119,-0.2041056901216507,9.95449161529541,0.005265164189040661,-0.00918632186949253,0.9672726392745972,-0.25350117683410645
1789658826393922776,1789658826396773691,0.014898800291121006,-0.03086180053651333,0.09258539974689484,0.05446808785200119,-0.2041056901216507,9.95449161529541,0.005265164189040661,-0.00918632186949253,0.9672726392745972,-0.25350117683410645
1789658826397524608,1789658826399972668,0.014898800291121006,-0.03086180053651333,0.09258539974689484,0.05446808785200119,-0.2041056901216507,9.95449161529541,0.005265164189040661,-0.00918632186949253,0.9672726392745972,-0.25350117683410645
1789658826401324896,1789658826414647395,0.012770400382578373,-0.028733400627970695,0.09152120351791382,0.1304839849472046,-0.14006079733371735,9.833584785461426,0.005298773292452097,-0.009653773158788681,0.9670215249061584,-0.25443971157073975
1789658826414025455,1789658826415891369,0.012770400382578373,-0.028733400627970695,0.09152120351791382,0.1304839849472046,-0.14006079733371735,9.833584785461426,0.005298773292452097,-0.009653773158788681,0.9670215249061584,-0.25443971157073975
1789658826416766818,1789658826421042830,0.012770400382578373,-0.028733400627970695,0.09152120351791382,0.1304839849472046,-0.14006079733371735,9.833584785461426,0.005298773292452097,-0.009653773158788681,0.9670215249061584,-0.25443971157073975
1789658826421702140,1789658826434011453,0.01383460033684969,-0.03086180053651333,0.0904569998383522,0.058059390634298325,-0.19033902883529663,9.982624053955078,0.005750056356191635,-0.008392952382564545,0.9667889475822449,-0.25535622239112854
1789658826434643819,1789658826436865553,0.01383460033684969,-0.03086180053651333,0.0904569998383522,0.058059390634298325,-0.19033902883529663,9.982624053955078,0.005750056356191635,-0.008392952382564545,0.9667889475822449,-0.25535622239112854
1789658826437538233,1789658826440790374,0.01383460033684969,-0.03086180053651333,0.0904569998383522,0.058059390634298325,-0.19033902883529663,9.982624053955078,0.005750056356191635,-0.008392952382564545,0.9667889475822449,-0.25535622239112854
1789658826442280061,1789658826454954842,0.01383460033684969,-0.029797600582242012,0.09152120351791382,0.08559270948171616,-0.13706804811954498,9.877279281616211,0.0051382421515882015,-0.006986716296523809,0.9665572047233582,-0.25628766417503357
1789658826458501010,1789658826462088213,0.01383460033684969,-0.029797600582242012,0.09152120351791382,0.08559270948171616,-0.13706804811954498,9.877279281616211,0.0051382421515882015,-0.006986716296523809,0.9665572047233582,-0.25628766417503357
1789658826462974515,1789658826477200110,0.012770400382578373,-0.028733400627970695,0.09364960342645645,0.08559270948171616,-0.2106897532939911,9.876680374145508,0.005952134728431702,-0.008520633913576603,0.9662906527519226,-0.25722700357437134
1789658826477754646,1789658826481371570,0.012770400382578373,-0.028733400627970695,0.09364960342645645,0.08559270948171616,-0.2106897532939911,9.876680374145508,0.005952134728431702,-0.008520633913576603,0.9662906527519226,-0.25722700357437134
1789658826481854645,1789658826495168459,0.012770400382578373,-0.028733400627970695,0.09364960342645645,0.08559270948171616,-0.2106897532939911,9.876680374145508,0.005952134728431702,-0.008520633913576603,0.9662906527519226,-0.25722700357437134
1789658826486298299,1789658826497927952,0.012770400382578373,-0.029797600582242012,0.09258539974689484,0.030526071786880493,-0.21547815203666687,9.973047256469727,0.006972026079893112,-0.008737430907785892,0.9660346508026123,-0.2581539750099182
1789658826497478283,1789658826500480100,0.012770400382578373,-0.029797600582242012,0.09258539974689484,0.030526071786880493,-0.21547815203666687,9.973047256469727,0.006972026079893112,-0.008737430907785892,0.9660346508026123,-0.2581539750099182
1789658826501320848,1789658826504073766,0.012770400382578373,-0.029797600582242012,0.09258539974689484,0.030526071786880493,-0.21547815203666687,9.973047256469727,0.006972026079893112,-0.008737430907785892,0.9660346508026123,-0.2581539750099182
1789658826506476661,1789658826518155886,0.011706200428307056,-0.03086180053651333,0.09364960342645645,0.08858545869588852,-0.16340425610542297,9.79527759552002,0.006137946154922247,-0.007857146672904491,0.965790867805481,-0.2591136693954468
1789658826517917098,1789658826520114111,0.011706200428307056,-0.03086180053651333,0.09364960342645645,0.08858545869588852,-0.16340425610542297,9.79527759552002,0.006137946154922247,-0.007857146672904491,0.965790867805481,-0.2591136693954468
1789658826521478284,1789658826524662187,0.011706200428307056,-0.03086180053651333,0.09364960342645645,0.08858545869588852,-0.16340425610542297,9.79527759552002,0.006137946154922247,-0.007857146672904491,0.965790867805481,-0.2591136693954468
1789658826526420512,1789658826538929689,0.011706200428307056,-0.031925998628139496,0.09152120351791382,0.07182604819536209,-0.17896656692028046,9.827000617980957,0.005967422388494015,-0.0082687484100461,0.965535581111908,-0.26005467772483826
1789658826538849025,1789658826540751234,0.011706200428307056,-0.031925998628139496,0.09152120351791382,0.07182604819536209,-0.17896656692028046,9.827000617980957,0.005967422388494015,-0.0082687484100461,0.965535581111908,-0.26005467772483826
1789658826541378248,1789658826544048892,0.011706200428307056,-0.031925998628139496,0.09152120351791382,0.07182604819536209,-0.17896656692028046,9.827000617980957,0.005967422388494015,-0.0082687484100461,0.965535581111908,-0.26005467772483826
1789658826552509419,1789658826559958223,0.012770400382578373,-0.03299019858241081,0.09152120351791382,0.11911153048276901,-0.18914192914962769,9.84495735168457,0.00596832949668169,-0.00881251972168684,0.9652789235115051,-0.26098811626434326
1789658826559888059,1789658826561763602,0.012770400382578373,-0.03299019858241081,0.09152120351791382,0.11911153048276901,-0.18914192914962769,9.84495735168457,0.00596832949668169,-0.00881251972168684,0.9652789235115051,-0.26098811626434326
1789658826562314952,1789658826563801787,0.012770400382578373,-0.03299019858241081,0.09152120351791382,0.11911153048276901,-0.18914192914962769,9.84495735168457,0.00596832949668169,-0.00881251972168684,0.9652789235115051,-0.26098811626434326
1789658826566429081,1789658826569011432,0.012770400382578373,-0.03299019858241081,0.09152120351791382,0.11911153048276901,-0.18914192914962769,9.84495735168457,0.00596832949668169,-0.00881251972168684,0.9652789235115051,-0.26098811626434326
1789658826571436992,1789658826580345688,0.012770400382578373,-0.031925998628139496,0.09152120351791382,0.11971008032560349,-0.1346738487482071,9.888052940368652,0.007591541390866041,-0.008350316435098648,0.9650275707244873,-0.2618890106678009
1789658826579898556,1789658826582844801,0.012770400382578373,-0.031925998628139496,0.09152120351791382,0.11971008032560349,-0.1346738487482071,9.888052940368652,0.007591541390866041,-0.008350316435098648,0.9650275707244873,-0.2618890106678009
1789658826583482297,1789658826588201533,0.012770400382578373,-0.031925998628139496,0.09152120351791382,0.11971008032560349,-0.1346738487482071,9.888052940368652,0.007591541390866041,-0.008350316435098648,0.9650275707244873,-0.2618890106678009
1789658826587748235,1789658826591025690,0.012770400382578373,-0.031925998628139496,0.09152120351791382,0.11971008032560349,-0.1346738487482071,9.888052940368652,0.007591541390866041,-0.008350316435098648,0.9650275707244873,-0.2618890106678009
1789658826591272829,1789658826600930461,0.012770400382578373,-0.03299019858241081,0.09258539974689484,0.02513911761343479,-0.2603694200515747,9.941922187805176,0.007085897494107485,-0.009987033903598785,0.9647578597068787,-0.2628379166126251
1789658826601510514,1789658826603806801,0.012770400382578373,-0.03299019858241081,0.09258539974689484,0.02513911761343479,-0.2603694200515747,9.941922187805176,0.007085897494107485,-0.009987033903598785,0.9647578597068787,-0.2628379166126251
1789658826606402670,1789658826610206773,0.012770400382578373,-0.03299019858241081,0.09258539974689484,0.02513911761343479,-0.2603694200515747,9.941922187805176,0.007085897494107485,-0.009987033903598785,0.9647578597068787,-0.2628379166126251
1789658826611422729,1789658826622656896,0.011706200428307056,-0.031925998628139496,0.09152120351791382,0.05027823522686958,-0.16519992053508759,9.780313491821289,0.005656584165990353,-0.008894899860024452,0.9645180702209473,-0.2637902498245239
1789658826621937626,1789658826625340780,0.011706200428307056,-0.031925998628139496,0.09152120351791382,0.05027823522686958,-0.16519992053508759,9.780313491821289,0.005656584165990353,-0.008894899860024452,0.9645180702209473,-0.2637902498245239
1789658826626261710,1789658826629224473,0.011706200428307056,-0.031925998628139496,0.09152120351791382,0.05027823522686958,-0.16519992053508759,9.780313491821289,0.005656584165990353,-0.008894899860024452,0.9645180702209473,-0.2637902498245239
1789658826631378432,1789658826643227447,0.012770400382578373,-0.03299019858241081,0.09258539974689484,0.03770867735147476,-0.19393032789230347,9.907206535339355,0.004496900364756584,-0.008813338354229927,0.964263916015625,-0.2647426128387451
1789658826643023047,1789658826645062695,0.012770400382578373,-0.03299019858241081,0.09258539974689484,0.03770867735147476,-0.19393032789230347,9.907206535339355,0.004496900364756584,-0.008813338354229927,0.964263916015625,-0.2647426128387451
1789658826648073753,1789658826649738470,0.012770400382578373,-0.03299019858241081,0.09258539974689484,0.03770867735147476,-0.19393032789230347,9.907206535339355,0.004496900364756584,-0.008813338354229927,0.964263916015625,-0.2647426128387451
1789658826651640346,1789658826664173762,0.014898800291121006,-0.03086180053651333,0.09152120351791382,0.0694318488240242,-0.17896656692028046,9.75517463684082,0.005658919457346201,-0.007624099496752024,0.9640149474143982,-0.26566213369369507
1789658826663991602,1789658826665871941,0.014898800291121006,-0.03086180053651333,0.09152120351791382,0.0694318488240242,-0.17896656692028046,9.75517463684082,0.005658919457346201,-0.007624099496752024,0.9640149474143982,-0.26566213369369507
1789658826666548787,1789658826668918775,0.014898800291121006,-0.03086180053651333,0.09152120351791382,0.0694318488240242,-0.17896656692028046,9.75517463684082,0.005658919457346201,-0.007624099496752024,0.9640149474143982,-0.26566213369369507
1789658826671430092,1789658826673053829,0.014898800291121006,-0.03086180053651333,0.09152120351791382,0.0694318488240242,-0.17896656692028046,9.75517463684082,0.005658919457346201,-0.007624099496752024,0.9640149474143982,-0.26566213369369507
1789658826676499056,1789658826686286424,0.011706200428307056,-0.029797600582242012,0.09258539974689484,0.1586158573627472,-0.19033902883529663,9.694122314453125,0.0059884702786803246,-0.008485143072903156,0.9637488126754761,-0.26659274101257324
1789658826685812552,1789658826690755577,0.011706200428307056,-0.029797600582242012,0.09258539974689484,0.1586158573627472,-0.19033902883529663,9.694122314453125,0.0059884702786803246,-0.008485143072903156,0.9637488126754761,-0.26659274101257324
1789658826690949292,1789658826693918018,0.011706200428307056,-0.029797600582242012,0.09258539974689484,0.1586158573627472,-0.19033902883529663,9.694122314453125,0.0059884702786803246,-0.008485143072903156,0.9637488126754761,-0.26659274101257324
1789658826694756135,1789658826706648316,0.011706200428307056,-0.029797600582242012,0.09364960342645645,0.03531447425484657,-0.18614917993545532,9.849146842956543,0.006840812508016825,-0.008825598284602165,0.9634785652160645,-0.2675364017486572
1789658826706553763,1789658826710522860,0.011706200428307056,-0.029797600582242012,0.09364960342645645,0.03531447425484657,-0.18614917993545532,9.849146842956543,0.006840812508016825,-0.008825598284602165,0.9634785652160645,-0.2675364017486572
1789658826711938309,1789658826717067197,0.011706200428307056,-0.029797600582242012,0.09364960342645645,0.03531447425484657,-0.18614917993545532,9.849146842956543,0.006840812508016825,-0.008825598284602165,0.9634785652160645,-0.2675364017486572
1789658826717959054,1789658826726954284,0.012770400382578373,-0.029797600582242012,0.09258539974689484,0.10055647045373917,-0.1867477297782898,9.833584785461426,0.008042823523283005,-0.008580101653933525,0.9632151126861572,-0.2684582769870758
1789658826727514300,1789658826730776793,0.012770400382578373,-0.029797600582242012,0.09258539974689484,0.10055647045373917,-0.1867477297782898,9.833584785461426,0.008042823523283005,-0.008580101653933525,0.9632151126861572,-0.2684582769870758
1789658826731350495,1789658826732816867,0.012770400382578373,-0.029797600582242012,0.09258539974689484,0.10055647045373917,-0.1867477297782898,9.833584785461426,0.008042823523283005,-0.008580101653933525,0.9632151126861572,-0.2684582769870758
1789658826736455495,1789658826747561111,0.012770400382578373,-0.031925998628139496,0.09258539974689484,0.011372458189725876,-0.243011474609375,9.882067680358887,0.007056436967104673,-0.007781692780554295,0.9629660844802856,-0.26940202713012695
1789658826747084999,1789658826750947655,0.012770400382578373,-0.031925998628139496,0.09258539974689484,0.011372458189725876,-0.243011474609375,9.882067680358887,0.007056436967104673,-0.007781692780554295,0.9629660844802856,-0.26940202713012695
1789658826752058948,1789658826755493916,0.012770400382578373,-0.031925998628139496,0.09258539974689484,0.011372458189725876,-0.243011474609375,9.882067680358887,0.007056436967104673,-0.007781692780554295,0.9629660844802856,-0.26940202713012695
1789658826756756556,1789658826767994815,0.011706200428307056,-0.03299019858241081,0.09258539974689484,0.07481880486011505,-0.15143325924873352,9.925163269042969,0.007695289794355631,-0.008176920935511589,0.962695837020874,-0.27033692598342896
1789658826767916411,1789658826770975781,0.011706200428307056,-0.03299019858241081,0.09258539974689484,0.07481880486011505,-0.15143325924873352,9.925163269042969,0.007695289794355631,-0.008176920935511589,0.962695837020874,-0.27033692598342896
1789658826771654034,1789658826776440824,0.011706200428307056,-0.03299019858241081,0.09258539974689484,0.07481880486011505,-0.15143325924873352,9.925163269042969,0.007695289794355631,-0.008176920935511589,0.962695837020874,-0.27033692598342896
1789658826776987008,1789658826792112404,0.010641999542713165,-0.03299019858241081,0.09152120351791382,0.13706804811954498,-0.1909375786781311,9.673172950744629,0.007803119719028473,-0.008741861209273338,0.9624282717704773,-0.2712673544883728
1789658826789073200,1789658826792947041,0.010641999542713165,-0.03299019858241081,0.09152120351791382,0.13706804811954498,-0.1909375786781311,9.673172950744629,0.007803119719028473,-0.008741861209273338,0.9624282717704773,-0.2712673544883728
1789658826792232567,1789658826796098075,0.010641999542713165,-0.03299019858241081,0.09152120351791382,0.13706804811954498,-0.1909375786781311,9.673172950744629,0.007803119719028473,-0.008741861209273338,0.9624282717704773,-0.2712673544883728
1789658826796662665,1789658826810898224,0.012770400382578373,-0.029797600582242012,0.09152120351791382,0.060453593730926514,-0.22864626348018646,9.919177055358887,0.0071492125280201435,-0.007946621626615524,0.9621789455413818,-0.27219265699386597
1789658826811301320,1789658826817272252,0.012770400382578373,-0.029797600582242012,0.09152120351791382,0.060453593730926514,-0.22864626348018646,9.919177055358887,0.0071492125280201435,-0.007946621626615524,0.9621789455413818,-0.27219265699386597
1789658826817242401,1789658826820426008,0.012770400382578373,-0.029797600582242012,0.09152120351791382,0.060453593730926514,-0.22864626348018646,9.919177055358887,0.0071492125280201435,-0.007946621626615524,0.9621789455413818,-0.27219265699386597
1789658826821420139,1789658826831159952,0.012770400382578373,-0.029797600582242012,0.09152120351791382,0.06883329898118973,-0.1843535304069519,9.7976713180542,0.00810297206044197,-0.007683021016418934,0.9619129300117493,-0.27311235666275024
1789658826831343187,1789658826835705306,0.012770400382578373,-0.029797600582242012,0.09152120351791382,0.06883329898118973,-0.1843535304069519,9.7976713180542,0.00810297206044197,-0.007683021016418934,0.9619129300117493,-0.27311235666275024
1789658826836311877,1789658826839789769,0.012770400382578373,-0.029797600582242012,0.09152120351791382,0.06883329898118973,-0.1843535304069519,9.7976713180542,0.00810297206044197,-0.007683021016418934,0.9619129300117493,-0.27311235666275024
1789658826841560335,1789658826852238078,0.011706200428307056,-0.031925998628139496,0.09152120351791382,0.0802057534456253,-0.21428105235099792,9.815628051757812,0.00814847368746996,-0.008995051495730877,0.9616380929946899,-0.2740369439125061
1789658826855198341,1789658826858014276,0.011706200428307056,-0.031925998628139496,0.09152120351791382,0.0802057534456253,-0.21428105235099792,9.815628051757812,0.00814847368746996,-0.008995051495730877,0.9616380929946899,-0.2740369439125061
1789658826858974352,1789658826861138533,0.011706200428307056,-0.031925998628139496,0.09152120351791382,0.0802057534456253,-0.21428105235099792,9.815628051757812,0.00814847368746996,-0.008995051495730877,0.9616380929946899,-0.2740369439125061
1789658826861640774,1789658826872159652,0.012770400382578373,-0.03405439853668213,0.09364960342645645,0.04668693244457245,-0.16879121959209442,9.882665634155273,0.006863015238195658,-0.007659633178263903,0.9613917469978333,-0.27497562766075134
1789658826872960660,1789658826877148564,0.012770400382578373,-0.03405439853668213,0.09364960342645645,0.04668693244457245,-0.16879121959209442,9.882665634155273,0.006863015238195658,-0.007659633178263903,0.9613917469978333,-0.27497562766075134
1789658826877914295,1789658826882202492,0.012770400382578373,-0.03405439853668213,0.09364960342645645,0.04668693244457245,-0.16879121959209442,9.882665634155273,0.006863015238195658,-0.007659633178263903,0.9613917469978333,-0.27497562766075134
1789658826882635569,1789658826892905956,0.011706200428307056,-0.031925998628139496,0.09364960342645645,0.10474631935358047,-0.2214636504650116,9.758167266845703,0.007591929752379656,-0.00907133799046278,0.961103081703186,-0.27592113614082336
1789658826893513415,1789658826895900514,0.011706200428307056,-0.031925998628139496,0.09364960342645645,0.10474631935358047,-0.2214636504650116,9.758167266845703,0.007591929752379656,-0.00907133799046278,0.961103081703186,-0.27592113614082336
1789658826896602878,1789658826900312836,0.011706200428307056,-0.031925998628139496,0.09364960342645645,0.10474631935358047,-0.2214636504650116,9.758167266845703,0.007591929752379656,-0.00907133799046278,0.961103081703186,-0.27592113614082336
1789658826901382056,1789658826914522136,0.011706200428307056,-0.03299019858241081,0.09152120351791382,0.07661445438861847,-0.20949263870716095,9.822212219238281,0.008252225816249847,-0.008224165067076683,0.960841178894043,-0.27683937549591064
1789658826914010858,1789658826917319368,0.011706200428307056,-0.03299019858241081,0.09152120351791382,0.07661445438861847,-0.20949263870716095,9.822212219238281,0.008252225816249847,-0.008224165067076683,0.960841178894043,-0.27683937549591064
1789658826917876162,1789658826921875795,0.011706200428307056,-0.03299019858241081,0.09152120351791382,0.07661445438861847,-0.20949263870716095,9.822212219238281,0.008252225816249847,-0.008224165067076683,0.960841178894043,-0.27683937549591064
1789658826922102935,1789658826935043763,0.012770400382578373,-0.031925998628139496,0.09152120351791382,0.09636661410331726,-0.17178396880626678,9.785700798034668,0.008267641998827457,-0.00879052933305502,0.960570752620697,-0.27775827050209045
1789658826935810605,1789658826940250592,0.012770400382578373,-0.031925998628139496,0.09152120351791382,0.09636661410331726,-0.17178396880626678,9.785700798034668,0.008267641998827457,-0.00879052933305502,0.960570752620697,-0.27775827050209045
1789658826940805424,1789658826944108305,0.012770400382578373,-0.031925998628139496,0.09152120351791382,0.09636661410331726,-0.17178396880626678,9.785700798034668,0.008267641998827457,-0.00879052933305502,0.960570752620697,-0.27775827050209045
1789658826944728523,1789658826956310159,0.014898800291121006,-0.03299019858241081,0.09258539974689484,0.0802057534456253,-0.20051439106464386,9.834781646728516,0.008109470829367638,-0.007607297971844673,0.9603156447410583,-0.2786783277988434
1789658826958052762,1789658826960313440,0.014898800291121006,-0.03299019858241081,0.09258539974689484,0.0802057534456253,-0.20051439106464386,9.834781646728516,0.008109470829367638,-0.007607297971844673,0.9603156447410583,-0.2786783277988434
1789658826961930011,1789658826965326277,0.014898800291121006,-0.03299019858241081,0.09258539974689484,0.0802057534456253,-0.20051439106464386,9.834781646728516,0.008109470829367638,-0.007607297971844673,0.9603156447410583,-0.2786783277988434
1789658826966372461,1789658826977193032,0.014898800291121006,-0.035118598490953445,0.09258539974689484,0.0802057534456253,-0.16759411990642548,9.958083152770996,0.009115164168179035,-0.007417813874781132,0.9600390791893005,-0.2796039581298828
1789658826977111331,1789658826979044928,0.014898800291121006,-0.035118598490953445,0.09258539974689484,0.0802057534456253,-0.16759411990642548,9.958083152770996,0.009115164168179035,-0.007417813874781132,0.9600390791893005,-0.2796039581298828
1789658826981728164,1789658826985983898,0.014898800291121006,-0.035118598490953445,0.09258539974689484,0.0802057534456253,-0.16759411990642548,9.958083152770996,0.009115164168179035,-0.007417813874781132,0.9600390791893005,-0.2796039581298828
1789658826986735853,1789658826997841376,0.012770400382578373,-0.03299019858241081,0.09258539974689484,0.14425064623355865,-0.19033902883529663,9.727043151855469,0.008903095498681068,-0.006685690488666296,0.9597770571708679,-0.2805274426937103
1789658826997788823,1789658826999905024,0.012770400382578373,-0.03299019858241081,0.09258539974689484,0.14425064623355865,-0.19033902883529663,9.727043151855469,0.008903095498681068,-0.006685690488666296,0.9597770571708679,-0.2805274426937103
1789658827001360230,1789658827003506726,0.012770400382578373,-0.03299019858241081,0.09258539974689484,0.14425064623355865,-0.19033902883529663,9.727043151855469,0.008903095498681068,-0.006685690488666296,0.9597770571708679,-0.2805274426937103
1789658827006424250,1789658827017970073,0.011706200428307056,-0.03086180053651333,0.09364960342645645,0.10055647045373917,-0.1825578808784485,9.873687744140625,0.007345416583120823,-0.007416438311338425,0.9595041275024414,-0.28148606419563293
1789658827018770711,1789658827022335970,0.011706200428307056,-0.03086180053651333,0.09364960342645645,0.10055647045373917,-0.1825578808784485,9.873687744140625,0.007345416583120823,-0.007416438311338425,0.9595041275024414,-0.28148606419563293
1789658827022105201,1789658827025154757,0.011706200428307056,-0.03086180053651333,0.09364960342645645,0.10055647045373917,-0.1825578808784485,9.873687744140625,0.007345416583120823,-0.007416438311338425,0.9595041275024414,-0.28148606419563293
1789658827026353695,1789658827039519792,0.011706200428307056,-0.029797600582242012,0.09364960342645645,0.15682020783424377,-0.1999158412218094,10.031105995178223,0.009673180989921093,-0.007195174694061279,0.9592139720916748,-0.2824087142944336
1789658827039528422,1789658827041354133,0.011706200428307056,-0.029797600582242012,0.09364960342645645,0.15682020783424377,-0.1999158412218094,10.031105995178223,0.009673180989921093,-0.007195174694061279,0.9592139720916748,-0.2824087142944336
1789658827043070071,1789658827046548001,0.011706200428307056,-0.029797600582242012,0.09364960342645645,0.15682020783424377,-0.1999158412218094,10.031105995178223,0.009673180989921093,-0.007195174694061279,0.9592139720916748,-0.2824087142944336
1789658827048240143,1789658827060008513,0.011706200428307056,-0.03086180053651333,0.09258539974689484,0.08858545869588852,-0.1604115068912506,9.877877235412598,0.007897940464317799,-0.006900524254888296,0.958953320980072,-0.2833545207977295
1789658827061061068,1789658827066138087,0.011706200428307056,-0.03086180053651333,0.09258539974689484,0.08858545869588852,-0.1604115068912506,9.877877235412598,0.007897940464317799,-0.006900524254888296,0.958953320980072,-0.2833545207977295
1789658827065478371,1789658827070270197,0.011706200428307056,-0.03086180053651333,0.09258539974689484,0.08858545869588852,-0.1604115068912506,9.877877235412598,0.007897940464317799,-0.006900524254888296,0.958953320980072,-0.2833545207977295
1789658827070733458,1789658827081740300,0.012770400382578373,-0.03299019858241081,0.09258539974689484,0.09457096457481384,-0.21966800093650818,9.907805442810059,0.008834036067128181,-0.008047698996961117,0.9586606025695801,-0.28428569436073303
1789658827081566955,1789658827087401725,0.012770400382578373,-0.03299019858241081,0.09258539974689484,0.09457096457481384,-0.21966800093650818,9.907805442810059,0.008834036067128181,-0.008047698996961117,0.9586606025695801,-0.28428569436073303
1789658827086569347,1789658827091720957,0.012770400382578373,-0.03299019858241081,0.09258539974689484,0.09457096457481384,-0.21966800093650818,9.907805442810059,0.008834036067128181,-0.008047698996961117,0.9586606025695801,-0.28428569436073303
1789658827091448430,1789658827102321740,0.01383460033684969,-0.031925998628139496,0.09258539974689484,0.17896656692028046,-0.20530278980731964,9.858125686645508,0.008396271616220474,-0.007779586594551802,0.9583882093429565,-0.28522318601608276
1789658827102348572,1789658827105670359,0.01383460033684969,-0.031925998628139496,0.09258539974689484,0.17896656692028046,-0.20530278980731964,9.858125686645508,0.008396271616220474,-0.007779586594551802,0.9583882093429565,-0.28522318601608276
1789658827106844132,1789658827110764286,0.01383460033684969,-0.031925998628139496,0.09258539974689484,0.17896656692028046,-0.20530278980731964,9.858125686645508,0.008396271616220474,-0.007779586594551802,0.9583882093429565,-0.28522318601608276
1789658827112998723,1789658827125362183,0.011706200428307056,-0.03086180053651333,0.09152120351791382,0.10055647045373917,-0.21787235140800476,9.885658264160156,0.007925083860754967,-0.008821225725114346,0.9581037759780884,-0.286160945892334
1789658827122546452,1789658827126140081,0.011706200428307056,-0.03086180053651333,0.09152120351791382,0.10055647045373917,-0.21787235140800476,9.885658264160156,0.007925083860754967,-0.008821225725114346,0.9581037759780884,-0.286160945892334
1789658827126765262,1789658827129379593,0.011706200428307056,-0.03086180053651333,0.09152120351791382,0.10055647045373917,-0.21787235140800476,9.885658264160156,0.007925083860754967,-0.008821225725114346,0.9581037759780884,-0.286160945892334
1789658827131368484,1789658827143213277,0.012770400382578373,-0.028733400627970695,0.09152120351791382,0.07302314788103104,-0.14365209639072418,9.992798805236816,0.006521396338939667,-0.007983807474374771,0.9578414559364319,-0.287097305059433
1789658827144175279,1789658827149174080,0.012770400382578373,-0.028733400627970695,0.09152120351791382,0.07302314788103104,-0.14365209639072418,9.992798805236816,0.006521396338939667,-0.007983807474374771,0.9578414559364319,-0.287097305059433
1789658827152923407,1789658827163928434,0.010641999542713165,-0.03086180053651333,0.09258539974689484,0.12030863016843796,-0.2124854028224945,9.909002304077148,0.006793134845793247,-0.008878706023097038,0.9575528502464294,-0.28802600502967834
1789658827164510006,1789658827165832810,0.010641999542713165,-0.03086180053651333,0.09258539974689484,0.12030863016843796,-0.2124854028224945,9.909002304077148,0.006793134845793247,-0.008878706023097038,0.9575528502464294,-0.28802600502967834
1789658827166451343,1789658827169137894,0.010641999542713165,-0.03086180053651333,0.09258539974689484,0.12030863016843796,-0.2124854028224945,9.909002304077148,0.006793134845793247,-0.008878706023097038,0.9575528502464294,-0.28802600502967834
1789658827171406330,1789658827173336575,0.010641999542713165,-0.03086180053651333,0.09258539974689484,0.12030863016843796,-0.2124854028224945,9.909002304077148,0.006793134845793247,-0.008878706023097038,0.9575528502464294,-0.28802600502967834
1789658827176440166,1789658827185786957,0.011706200428307056,-0.03405439853668213,0.09258539974689484,0.040701426565647125,-0.20350714027881622,9.957484245300293,0.00504559651017189,-0.009116013534367085,0.9572749733924866,-0.28897643089294434
1789658827185002708,1789658827187281811,0.011706200428307056,-0.03405439853668213,0.09258539974689484,0.040701426565647125,-0.20350714027881622,9.957484245300293,0.00504559651017189,-0.009116013534367085,0.9572749733924866,-0.28897643089294434
1789658827187765312,1789658827190246314,0.011706200428307056,-0.03405439853668213,0.09258539974689484,0.040701426565647125,-0.20350714027881622,9.957484245300293,0.00504559651017189,-0.009116013534367085,0.9572749733924866,-0.28897643089294434
1789658827191744612,1789658827194145673,0.011706200428307056,-0.03405439853668213,0.09258539974689484,0.040701426565647125,-0.20350714027881622,9.957484245300293,0.00504559651017189,-0.009116013534367085,0.9572749733924866,-0.28897643089294434
1789658827196376648,1789658827206173923,0.012770400382578373,-0.031925998628139496,0.09364960342645645,0.1604115068912506,-0.208295539021492,9.806650161743164,0.0065147592686116695,-0.00761119369417429,0.957000732421875,-0.2898973524570465
1789658827205938912,1789658827208209923,0.012770400382578373,-0.031925998628139496,0.09364960342645645,0.1604115068912506,-0.208295539021492,9.806650161743164,0.0065147592686116695,-0.00761119369417429,0.957000732421875,-0.2898973524570465
1789658827209641741,1789658827215286629,0.012770400382578373,-0.031925998628139496,0.09364960342645645,0.1604115068912506,-0.208295539021492,9.806650161743164,0.0065147592686116695,-0.00761119369417429,0.957000732421875,-0.2898973524570465
1789658827216173060,1789658827228210476,0.012770400382578373,-0.03086180053651333,0.09258539974689484,0.13108253479003906,-0.2106897532939911,9.892242431640625,0.006068413145840168,-0.00737975025549531,0.9567211270332336,-0.29083457589149475
1789658827227524242,1789658827231163925,0.012770400382578373,-0.03086180053651333,0.09258539974689484,0.13108253479003906,-0.2106897532939911,9.892242431640625,0.006068413145840168,-0.00737975025549531,0.9567211270332336,-0.29083457589149475
1789658827232417453,1789658827235800609,0.012770400382578373,-0.03086180053651333,0.09258539974689484,0.13108253479003906,-0.2106897532939911,9.892242431640625,0.006068413145840168,-0.00737975025549531,0.9567211270332336,-0.29083457589149475
1789658827236858478,1789658827248362505,0.012770400382578373,-0.03086180053651333,0.09152120351791382,0.10953472554683685,-0.19812019169330597,10.096348762512207,0.005729490891098976,-0.006791715510189533,0.956448495388031,-0.29175084829330444
1789658827248897097,1789658827252446098,0.012770400382578373,-0.03086180053651333,0.09152120351791382,0.10953472554683685,-0.19812019169330597,10.096348762512207,0.005729490891098976,-0.006791715510189533,0.956448495388031,-0.29175084829330444
1789658827253964321,1789658827257397715,0.012770400382578373,-0.03086180053651333,0.09152120351791382,0.10953472554683685,-0.19812019169330597,10.096348762512207,0.005729490891098976,-0.006791715510189533,0.956448495388031,-0.29175084829330444
1789658827258337811,1789658827268080347,0.011706200428307056,-0.03086180053651333,0.09152120351791382,0.09157821536064148,-0.17896656692028046,9.940725326538086,0.006112397648394108,-0.007611095905303955,0.956161618232727,-0.2926619350910187
1789658827268708454,1789658827270882116,0.011706200428307056,-0.03086180053651333,0.09152120351791382,0.09157821536064148,-0.17896656692028046,9.940725326538086,0.006112397648394108,-0.007611095905303955,0.956161618232727,-0.2926619350910187
1789658827271530259,1789658827275141202,0.011706200428307056,-0.03086180053651333,0.09152120351791382,0.09157821536064148,-0.17896656692028046,9.940725326538086,0.006112397648394108,-0.007611095905303955,0.956161618232727,-0.2926619350910187
1789658827276943285,1789658827289559495,0.010641999542713165,-0.031925998628139496,0.09152120351791382,0.09876082092523575,-0.21128830313682556,9.93593692779541,0.007883831858634949,-0.008124049752950668,0.9558659195899963,-0.2935703992843628
1789658827289064402,1789658827293189345,0.010641999542713165,-0.031925998628139496,0.09152120351791382,0.09876082092523575,-0.21128830313682556,9.93593692779541,0.007883831858634949,-0.008124049752950668,0.9558659195899963,-0.2935703992843628
1789658827293691456,1789658827295989040,0.010641999542713165,-0.031925998628139496,0.09152120351791382,0.09876082092523575,-0.21128830313682556,9.93593692779541,0.007883831858634949,-0.008124049752950668,0.9558659195899963,-0.2935703992843628
1789658827296593277,1789658827299355603,0.010641999542713165,-0.031925998628139496,0.09152120351791382,0.09876082092523575,-0.21128830313682556,9.93593692779541,0.007883831858634949,-0.008124049752950668,0.9558659195899963,-0.2935703992843628
1789658827301358808,1789658827310064641,0.011706200428307056,-0.03086180053651333,0.09152120351791382,0.0999579206109047,-0.17537526786327362,10.056843757629395,0.007874863222241402,-0.006602401379495859,0.9555965662002563,-0.29448428750038147
1789658827309987681,1789658827312956258,0.011706200428307056,-0.03086180053651333,0.09152120351791382,0.0999579206109047,-0.17537526786327362,10.056843757629395,0.007874863222241402,-0.006602401379495859,0.9555965662002563,-0.29448428750038147
1789658827313715675,1789658827317397468,0.011706200428307056,-0.03086180053651333,0.09152120351791382,0.0999579206109047,-0.17537526786327362,10.056843757629395,0.007874863222241402,-0.006602401379495859,0.9555965662002563,-0.29448428750038147
1789658827317989039,1789658827330896331,0.011706200428307056,-0.031925998628139496,0.09258539974689484,0.14006079733371735,-0.18315643072128296,9.891644477844238,0.007938047870993614,-0.007265413645654917,0.9553041458129883,-0.29541435837745667
1789658827331607823,1789658827333451109,0.011706200428307056,-0.031925998628139496,0.09258539974689484,0.14006079733371735,-0.18315643072128296,9.891644477844238,0.007938047870993614,-0.007265413645654917,0.9553041458129883,-0.29541435837745667
1789658827336455148,1789658827340025870,0.011706200428307056,-0.031925998628139496,0.09258539974689484,0.14006079733371735,-0.18315643072128296,9.891644477844238,0.007938047870993614,-0.007265413645654917,0.9553041458129883,-0.29541435837745667
1789658827341439264,1789658827352149913,0.011706200428307056,-0.029797600582242012,0.09152120351791382,0.04668693244457245,-0.1586158573627472,9.940725326538086,0.007135548163205385,-0.008065982721745968,0.9550169110298157,-0.2963411808013916
1789658827353282724,1789658827357286023,0.011706200428307056,-0.029797600582242012,0.09152120351791382,0.04668693244457245,-0.1586158573627472,9.940725326538086,0.007135548163205385,-0.008065982721745968,0.9550169110298157,-0.2963411808013916
1789658827358544422,1789658827361817785,0.011706200428307056,-0.029797600582242012,0.09152120351791382,0.04668693244457245,-0.1586158573627472,9.940725326538086,0.007135548163205385,-0.008065982721745968,0.9550169110298157,-0.2963411808013916
1789658827362380857,1789658827373065877,0.012770400382578373,-0.029797600582242012,0.09152120351791382,0.14365209639072418,-0.2238578498363495,9.845555305480957,0.006920204032212496,-0.008634375408291817,0.9547285437583923,-0.2972578704357147
1789658827373689299,1789658827377244782,0.012770400382578373,-0.029797600582242012,0.09152120351791382,0.14365209639072418,-0.2238578498363495,9.845555305480957,0.006920204032212496,-0.008634375408291817,0.9547285437583923,-0.2972578704357147
1789658827378074177,1789658827384963891,0.012770400382578373,-0.029797600582242012,0.09152120351791382,0.14365209639072418,-0.2238578498363495,9.845555305480957,0.006920204032212496,-0.008634375408291817,0.9547285437583923,-0.2972578704357147
1789658827386230975,1789658827393991119,0.012770400382578373,-0.03299019858241081,0.09258539974689484,0.08499415963888168,-0.193331778049469,9.943717956542969,0.006891470402479172,-0.00774068059399724,0.954450249671936,-0.2981758117675781
1789658827394589968,1789658827397968753,0.012770400382578373,-0.03299019858241081,0.09258539974689484,0.08499415963888168,-0.193331778049469,9.943717956542969,0.006891470402479172,-0.00774068059399724,0.954450249671936,-0.2981758117675781
1789658827398564009,1789658827399703079,0.012770400382578373,-0.03299019858241081,0.09258539974689484,0.08499415963888168,-0.193331778049469,9.943717956542969,0.006891470402479172,-0.00774068059399724,0.954450249671936,-0.2981758117675781
1789658827401287855,1789658827414273700,0.014898800291121006,-0.031925998628139496,0.09364960342645645,0.08738835901021957,-0.20889408886432648,10.063427925109863,0.007992601953446865,-0.007343819364905357,0.9541563987731934,-0.2990970015525818
1789658827414793033,1789658827417234796,0.014898800291121006,-0.031925998628139496,0.09364960342645645,0.08738835901021957,-0.20889408886432648,10.063427925109863,0.007992601953446865,-0.007343819364905357,0.9541563987731934,-0.2990970015525818
1789658827418405346,1789658827421046269,0.014898800291121006,-0.031925998628139496,0.09364960342645645,0.08738835901021957,-0.20889408886432648,10.063427925109863,0.007992601953446865,-0.007343819364905357,0.9541563987731934,-0.2990970015525818
1789658827421962865,1789658827435056595,0.014898800291121006,-0.029797600582242012,0.09258539974689484,0.06883329898118973,-0.23822306096553802,9.881468772888184,0.007050761952996254,-0.008539418689906597,0.9538576602935791,-0.30004048347473145
1789658827435638203,1789658827437913677,0.014898800291121006,-0.029797600582242012,0.09258539974689484,0.06883329898118973,-0.23822306096553802,9.881468772888184,0.007050761952996254,-0.008539418689906597,0.9538576602935791,-0.30004048347473145
1789658827438545246,1789658827442990752,0.014898800291121006,-0.029797600582242012,0.09258539974689484,0.06883329898118973,-0.23822306096553802,9.881468772888184,0.007050761952996254,-0.008539418689906597,0.9538576602935791,-0.30004048347473145
1789658827443877164,1789658827456270697,0.01383460033684969,-0.03086180053651333,0.09258539974689484,0.06823474913835526,-0.17537526786327362,9.931747436523438,0.006045254413038492,-0.00729961646720767,0.953580379486084,-0.3009748160839081
1789658827457859639,1789658827461053209,0.01383460033684969,-0.03086180053651333,0.09258539974689484,0.06823474913835526,-0.17537526786327362,9.931747436523438,0.006045254413038492,-0.00729961646720767,0.953580379486084,-0.3009748160839081
1789658827461525636,1789658827464802203,0.01383460033684969,-0.03086180053651333,0.09258539974689484,0.06823474913835526,-0.17537526786327362,9.931747436523438,0.006045254413038492,-0.00729961646720767,0.953580379486084,-0.3009748160839081
1789658827466612359,1789658827477037389,0.011706200428307056,-0.03086180053651333,0.09152120351791382,0.11133037507534027,-0.22625206410884857,9.923965454101562,0.0067431023344397545,-0.008610722608864307,0.9532765746116638,-0.3018867075443268
1789658827477281306,1789658827478789955,0.011706200428307056,-0.03086180053651333,0.09152120351791382,0.11133037507534027,-0.22625206410884857,9.923965454101562,0.0067431023344397545,-0.008610722608864307,0.9532765746116638,-0.3018867075443268
1789658827481492265,1789658827485478120,0.011706200428307056,-0.03086180053651333,0.09152120351791382,0.11133037507534027,-0.22625206410884857,9.923965454101562,0.0067431023344397545,-0.008610722608864307,0.9532765746116638,-0.3018867075443268
1789658827486441882,1789658827498016555,0.010641999542713165,-0.031925998628139496,0.09152120351791382,0.08858545869588852,-0.23523031175136566,9.906607627868652,0.008044164627790451,-0.00821833498775959,0.952982485294342,-0.30279284715652466
1789658827497925725,1789658827500024853,0.010641999542713165,-0.031925998628139496,0.09152120351791382,0.08858545869588852,-0.23523031175136566,9.906607627868652,0.008044164627790451,-0.00821833498775959,0.952982485294342,-0.30279284715652466
1789658827501534631,1789658827505446212,0.010641999542713165,-0.031925998628139496,0.09152120351791382,0.08858545869588852,-0.23523031175136566,9.906607627868652,0.008044164627790451,-0.00821833498775959,0.952982485294342,-0.30279284715652466
1789658827506393622,1789658827519796877,0.012770400382578373,-0.03086180053651333,0.09258539974689484,0.0628477931022644,-0.1867477297782898,10.002375602722168,0.0074584223330020905,-0.006984263192862272,0.9527019262313843,-0.3037202060222626
1789658827519483833,1789658827525044650,0.012770400382578373,-0.03086180053651333,0.09258539974689484,0.0628477931022644,-0.1867477297782898,10.002375602722168,0.0074584223330020905,-0.006984263192862272,0.9527019262313843,-0.3037202060222626
1789658827525490856,1789658827528810699,0.012770400382578373,-0.03086180053651333,0.09258539974689484,0.0628477931022644,-0.1867477297782898,10.002375602722168,0.0074584223330020905,-0.006984263192862272,0.9527019262313843,-0.3037202060222626
1789658827528818939,1789658827539153732,0.012770400382578373,-0.029797600582242012,0.09258539974689484,0.10115502029657364,-0.1867477297782898,9.979032516479492,0.007403456140309572,-0.007489097770303488,0.95240318775177,-0.3046451210975647
1789658827539925722,1789658827542522776,0.012770400382578373,-0.029797600582242012,0.09258539974689484,0.10115502029657364,-0.1867477297782898,9.979032516479492,0.007403456140309572,-0.007489097770303488,0.95240318775177,-0.3046451210975647
1789658827543219177,1789658827547004003,0.012770400382578373,-0.029797600582242012,0.09258539974689484,0.10115502029657364,-0.1867477297782898,9.979032516479492,0.007403456140309572,-0.007489097770303488,0.95240318775177,-0.3046451210975647
1789658827549249051,1789658827560231376,0.012770400382578373,-0.03086180053651333,0.09364960342645645,0.03411737456917763,-0.21009118854999542,9.95329475402832,0.0065858615562319756,-0.006664941553026438,0.9521130919456482,-0.30558833479881287
1789658827560830113,1789658827563262636,0.012770400382578373,-0.03086180053651333,0.09364960342645645,0.03411737456917763,-0.21009118854999542,9.95329475402832,0.0065858615562319756,-0.006664941553026438,0.9521130919456482,-0.30558833479881287
1789658827564292266,1789658827567077702,0.012770400382578373,-0.03086180053651333,0.09364960342645645,0.03411737456917763,-0.21009118854999542,9.95329475402832,0.0065858615562319756,-0.006664941553026438,0.9521130919456482,-0.30558833479881287
1789658827567763047,1789658827569914969,0.012770400382578373,-0.03086180053651333,0.09364960342645645,0.03411737456917763,-0.21009118854999542,9.95329475402832,0.0065858615562319756,-0.006664941553026438,0.9521130919456482,-0.30558833479881287
1789658827571351825,1789658827581161303,0.012770400382578373,-0.031925998628139496,0.09258539974689484,0.15502455830574036,-0.1843535304069519,9.849146842956543,0.006968516390770674,-0.007512715179473162,0.9518058896064758,-0.30651557445526123
1789658827581084120,1789658827584215136,0.012770400382578373,-0.031925998628139496,0.09258539974689484,0.15502455830574036,-0.1843535304069519,9.849146842956543,0.006968516390770674,-0.007512715179473162,0.9518058896064758,-0.30651557445526123
1789658827584826003,1789658827589078627,0.012770400382578373,-0.031925998628139496,0.09258539974689484,0.15502455830574036,-0.1843535304069519,9.849146842956543,0.006968516390770674,-0.007512715179473162,0.9518058896064758,-0.30651557445526123
1789658827589766306,1789658827602092322,0.012770400382578373,-0.031925998628139496,0.09152120351791382,0.104147769510746,-0.2214636504650116,9.917980194091797,0.006436185911297798,-0.007412997540086508,0.9515126943588257,-0.30743855237960815
1789658827602820055,1789658827607179638,0.012770400382578373,-0.031925998628139496,0.09152120351791382,0.104147769510746,-0.2214636504650116,9.917980194091797,0.006436185911297798,-0.007412997540086508,0.9515126943588257,-0.30743855237960815
1789658827608003960,1789658827611229769,0.012770400382578373,-0.031925998628139496,0.09152120351791382,0.104147769510746,-0.2214636504650116,9.917980194091797,0.006436185911297798,-0.007412997540086508,0.9515126943588257,-0.30743855237960815
1789658827612007259,1789658827623693021,0.01383460033684969,-0.028733400627970695,0.09258539974689484,0.055665187537670135,-0.20111294090747833,10.00836181640625,0.0072996728122234344,-0.00802113302052021,0.9512074589729309,-0.3083476424217224
1789658827624469067,1789658827628493884,0.01383460033684969,-0.028733400627970695,0.09258539974689484,0.055665187537670135,-0.20111294090747833,10.00836181640625,0.0072996728122234344,-0.00802113302052021,0.9512074589729309,-0.3083476424217224
1789658827628729357,1789658827632438797,0.01383460033684969,-0.028733400627970695,0.09258539974689484,0.055665187537670135,-0.20111294090747833,10.00836181640625,0.0072996728122234344,-0.00802113302052021,0.9512074589729309,-0.3083476424217224
1789658827632671918,1789658827644291886,0.012770400382578373,-0.029797600582242012,0.09258539974689484,0.06464344263076782,-0.2214636504650116,9.850343704223633,0.006334059406071901,-0.008162994869053364,0.950909435749054,-0.30928292870521545
1789658827645075210,1789658827648279149,0.012770400382578373,-0.029797600582242012,0.09258539974689484,0.06464344263076782,-0.2214636504650116,9.850343704223633,0.006334059406071901,-0.008162994869053364,0.950909435749054,-0.30928292870521545
1789658827653005293,1789658827664966397,0.012770400382578373,-0.029797600582242012,0.09364960342645645,-0.02513911761343479,-0.22685061395168304,9.860519409179688,0.0071950326673686504,-0.00891539454460144,0.9505950808525085,-0.31020811200141907
1789658827665673056,1789658827669115932,0.012770400382578373,-0.029797600582242012,0.09364960342645645,-0.02513911761343479,-0.22685061395168304,9.860519409179688,0.0071950326673686504,-0.00891539454460144,0.9505950808525085,-0.31020811200141907
1789658827669603729,1789658827672826056,0.012770400382578373,-0.029797600582242012,0.09364960342645645,-0.02513911761343479,-0.22685061395168304,9.860519409179688,0.0071950326673686504,-0.00891539454460144,0.9505950808525085,-0.31020811200141907
1789658827673537142,1789658827685421304,0.012770400382578373,-0.03086180053651333,0.09258539974689484,0.058059390634298325,-0.19871874153614044,10.029909133911133,0.005889200139790773,-0.008361827582120895,0.9503007531166077,-0.3111514151096344
1789658827685948174,1789658827688445824,0.012770400382578373,-0.03086180053651333,0.09258539974689484,0.058059390634298325,-0.19871874153614044,10.029909133911133,0.005889200139790773,-0.008361827582120895,0.9503007531166077,-0.3111514151096344
1789658827688839347,1789658827692520325,0.012770400382578373,-0.03086180053651333,0.09258539974689484,0.058059390634298325,-0.19871874153614044,10.029909133911133,0.005889200139790773,-0.008361827582120895,0.9503007531166077,-0.3111514151096344
1789658827693115173,1789658827706123054,0.012770400382578373,-0.031925998628139496,0.09258539974689484,0.033518824726343155,-0.21787235140800476,9.877279281616211,0.006344445049762726,-0.007455435115844011,0.9500046372413635,-0.312068372964859
1789658827706784845,1789658827709830068,0.012770400382578373,-0.031925998628139496,0.09258539974689484,0.033518824726343155,-0.21787235140800476,9.877279281616211,0.006344445049762726,-0.007455435115844011,0.9500046372413635,-0.312068372964859
1789658827711398604,1789658827714760575,0.012770400382578373,-0.031925998628139496,0.09258539974689484,0.033518824726343155,-0.21787235140800476,9.877279281616211,0.006344445049762726,-0.007455435115844011,0.9500046372413635,-0.312068372964859
1789658827716495956,1789658827727095517,0.012770400382578373,-0.029797600582242012,0.09152120351791382,0.07242459803819656,-0.15981295704841614,9.970054626464844,0.0066713858395814896,-0.007947532460093498,0.949697732925415,-0.31298255920410156
1789658827727009723,1789658827729901582,0.012770400382578373,-0.029797600582242012,0.09152120351791382,0.07242459803819656,-0.15981295704841614,9.970054626464844,0.0066713858395814896,-0.007947532460093498,0.949697732925415,-0.31298255920410156
1789658827731329419,1789658827733933899,0.012770400382578373,-0.029797600582242012,0.09152120351791382,0.07242459803819656,-0.15981295704841614,9.970054626464844,0.0066713858395814896,-0.007947532460093498,0.949697732925415,-0.31298255920410156
1789658827736360144,1789658827748821341,0.014898800291121006,-0.029797600582242012,0.09364960342645645,0.09816227108240128,-0.23702596127986908,9.855133056640625,0.006263479124754667,-0.008598227053880692,0.9493868350982666,-0.31391528248786926
1789658827748217918,1789658827752333195,0.014898800291121006,-0.029797600582242012,0.09364960342645645,0.09816227108240128,-0.23702596127986908,9.855133056640625,0.006263479124754667,-0.008598227053880692,0.9493868350982666,-0.31391528248786926
1789658827755051504,1789658827757206407,0.014898800291121006,-0.029797600582242012,0.09364960342645645,0.09816227108240128,-0.23702596127986908,9.855133056640625,0.006263479124754667,-0.008598227053880692,0.9493868350982666,-0.31391528248786926
1789658827757874439,1789658827769120902,0.012770400382578373,-0.028733400627970695,0.09364960342645645,0.05147533491253853,-0.17298106849193573,9.855731010437012,0.006087983958423138,-0.007206276059150696,0.949091911315918,-0.3148442804813385
1789658827769781156,1789658827774127072,0.012770400382578373,-0.028733400627970695,0.09364960342645645,0.05147533491253853,-0.17298106849193573,9.855731010437012,0.006087983958423138,-0.007206276059150696,0.949091911315918,-0.3148442804813385
1789658827774919747,1789658827777959341,0.012770400382578373,-0.028733400627970695,0.09364960342645645,0.05147533491253853,-0.17298106849193573,9.855731010437012,0.006087983958423138,-0.007206276059150696,0.949091911315918,-0.3148442804813385
1789658827778723832,1789658827790542830,0.011706200428307056,-0.029797600582242012,0.09258539974689484,0.0933738648891449,-0.1825578808784485,9.885658264160156,0.007477588020265102,-0.007139914203435183,0.9487797021865845,-0.31575554609298706
1789658827791068348,1789658827793970613,0.011706200428307056,-0.029797600582242012,0.09258539974689484,0.0933738648891449,-0.1825578808784485,9.885658264160156,0.007477588020265102,-0.007139914203435183,0.9487797021865845,-0.31575554609298706
1789658827794540370,1789658827797023391,0.011706200428307056,-0.029797600582242012,0.09258539974689484,0.0933738648891449,-0.1825578808784485,9.885658264160156,0.007477588020265102,-0.007139914203435183,0.9487797021865845,-0.31575554609298706
1789658827797668294,1789658827811334002,0.011706200428307056,-0.028733400627970695,0.09152120351791382,0.052073884755373,-0.22685061395168304,9.883264541625977,0.0065055168233811855,-0.008496150374412537,0.9484635591506958,-0.31669196486473083
1789658827811996386,1789658827815291155,0.011706200428307056,-0.028733400627970695,0.09152120351791382,0.052073884755373,-0.22685061395168304,9.883264541625977,0.0065055168233811855,-0.008496150374412537,0.9484635591506958,-0.31669196486473083
1789658827817026259,1789658827820551094,0.011706200428307056,-0.028733400627970695,0.09152120351791382,0.052073884755373,-0.22685061395168304,9.883264541625977,0.0065055168233811855,-0.008496150374412537,0.9484635591506958,-0.31669196486473083
1789658827822289272,1789658827831911090,0.011706200428307056,-0.029797600582242012,0.09152120351791382,0.07900865375995636,-0.16998831927776337,9.964667320251465,0.0076257819309830666,-0.007712586782872677,0.9481627941131592,-0.31758633255958557
1789658827831871184,1789658827834965480,0.011706200428307056,-0.029797600582242012,0.09152120351791382,0.07900865375995636,-0.16998831927776337,9.964667320251465,0.0076257819309830666,-0.007712586782872677,0.9481627941131592,-0.31758633255958557
1789658827836348559,1789658827837925410,0.011706200428307056,-0.029797600582242012,0.09152120351791382,0.07900865375995636,-0.16998831927776337,9.964667320251465,0.0076257819309830666,-0.007712586782872677,0.9481627941131592,-0.31758633255958557
1789658827841430171,1789658827852259205,0.012770400382578373,-0.029797600582242012,0.09258539974689484,0.030526071786880493,-0.26815059781074524,9.857526779174805,0.007482713554054499,-0.009501758962869644,0.9478335380554199,-0.31852251291275024
1789658827854310723,1789658827857575124,0.012770400382578373,-0.029797600582242012,0.09258539974689484,0.030526071786880493,-0.26815059781074524,9.857526779174805,0.007482713554054499,-0.009501758962869644,0.9478335380554199,-0.31852251291275024
1789658827858581847,1789658827861971631,0.012770400382578373,-0.029797600582242012,0.09258539974689484,0.030526071786880493,-0.26815059781074524,9.857526779174805,0.007482713554054499,-0.009501758962869644,0.9478335380554199,-0.31852251291275024
1789658827862424300,1789658827873186651,0.01383460033684969,-0.03086180053651333,0.0904569998383522,-0.0077811554074287415,-0.23163901269435883,9.803058624267578,0.007553533650934696,-0.008334722369909286,0.9475384950637817,-0.31943055987358093
1789658827873857090,1789658827878375963,0.01383460033684969,-0.03086180053651333,0.0904569998383522,-0.0077811554074287415,-0.23163901269435883,9.803058624267578,0.007553533650934696,-0.008334722369909286,0.9475384950637817,-0.31943055987358093
1789658827879053105,1789658827883530109,0.01383460033684969,-0.03086180053651333,0.0904569998383522,-0.0077811554074287415,-0.23163901269435883,9.803058624267578,0.007553533650934696,-0.008334722369909286,0.9475384950637817,-0.31943055987358093
1789658827882760545,1789658827895594117,0.012770400382578373,-0.03299019858241081,0.09152120351791382,0.04249707981944084,-0.1693897694349289,9.972448348999023,0.006930669769644737,-0.006866471841931343,0.9472479224205017,-0.3203395903110504
1789658827895205057,1789658827898887942,0.012770400382578373,-0.03299019858241081,0.09152120351791382,0.04249707981944084,-0.1693897694349289,9.972448348999023,0.006930669769644737,-0.006866471841931343,0.9472479224205017,-0.3203395903110504
1789658827900236615,1789658827902968128,0.012770400382578373,-0.03299019858241081,0.09152120351791382,0.04249707981944084,-0.1693897694349289,9.972448348999023,0.006930669769644737,-0.006866471841931343,0.9472479224205017,-0.3203395903110504
1789658827904073421,1789658827916396438,0.012770400382578373,-0.03299019858241081,0.0904569998383522,0.04489128291606903,-0.21787235140800476,9.836577415466309,0.007689496502280235,-0.008071080781519413,0.9469227194786072,-0.3212546706199646
1789658827917388883,1789658827920295519,0.012770400382578373,-0.03299019858241081,0.0904569998383522,0.04489128291606903,-0.21787235140800476,9.836577415466309,0.007689496502280235,-0.008071080781519413,0.9469227194786072,-0.3212546706199646
1789658827921384405,1789658827924405147,0.012770400382578373,-0.03299019858241081,0.0904569998383522,0.04489128291606903,-0.21787235140800476,9.836577415466309,0.007689496502280235,-0.008071080781519413,0.9469227194786072,-0.3212546706199646
1789658827926458314,1789658827936080799,0.012770400382578373,-0.031925998628139496,0.0904569998383522,0.018555063754320145,-0.21428105235099792,9.8970308303833,0.008712365292012691,-0.00785911362618208,0.9466130137443542,-0.322145015001297
1789658827936008172,1789658827937963082,0.012770400382578373,-0.031925998628139496,0.0904569998383522,0.018555063754320145,-0.21428105235099792,9.8970308303833,0.008712365292012691,-0.00785911362618208,0.9466130137443542,-0.322145015001297
1789658827938596430,1789658827939958547,0.012770400382578373,-0.031925998628139496,0.0904569998383522,0.018555063754320145,-0.21428105235099792,9.8970308303833,0.008712365292012691,-0.00785911362618208,0.9466130137443542,-0.322145015001297
1789658827941518342,1789658827945234374,0.012770400382578373,-0.031925998628139496,0.0904569998383522,0.018555063754320145,-0.21428105235099792,9.8970308303833,0.008712365292012691,-0.00785911362618208,0.9466130137443542,-0.322145015001297
1789658827956603481,1789658827959177332,0.011706200428307056,-0.031925998628139496,0.09152120351791382,0.031124621629714966,-0.22864626348018646,9.892242431640625,0.007481691427528858,-0.007345099933445454,0.9463136792182922,-0.3230664134025574
1789658827961373382,1789658827962637300,0.011706200428307056,-0.031925998628139496,0.09152120351791382,0.031124621629714966,-0.22864626348018646,9.892242431640625,0.007481691427528858,-0.007345099933445454,0.9463136792182922,-0.3230664134025574
1789658827966368072,1789658827977316231,0.01383460033684969,-0.03086180053651333,0.09152120351791382,0.04967968538403511,-0.2124854028224945,9.778517723083496,0.007442824076861143,-0.0063543603755533695,0.9460091590881348,-0.3239787220954895
1789658827977233604,1789658827980251384,0.01383460033684969,-0.03086180053651333,0.09152120351791382,0.04967968538403511,-0.2124854028224945,9.778517723083496,0.007442824076861143,-0.0063543603755533695,0.9460091590881348,-0.3239787220954895
1789658827981977118,1789658827985129707,0.01383460033684969,-0.03086180053651333,0.09152120351791382,0.04967968538403511,-0.2124854028224945,9.778517723083496,0.007442824076861143,-0.0063543603755533695,0.9460091590881348,-0.3239787220954895
1789658827986367273,1789658827998020629,0.011706200428307056,-0.031925998628139496,0.09258539974689484,0.08978256583213806,-0.1735796183347702,9.926959037780762,0.007780617568641901,-0.007026370614767075,0.9456855058670044,-0.32490062713623047
1789658827998007852,1789658828001002428,0.011706200428307056,-0.031925998628139496,0.09258539974689484,0.08978256583213806,-0.1735796183347702,9.926959037780762,0.007780617568641901,-0.007026370614767075,0.9456855058670044,-0.32490062713623047
1789658828001660849,1789658828005078670,0.011706200428307056,-0.031925998628139496,0.09258539974689484,0.08978256583213806,-0.1735796183347702,9.926959037780762,0.007780617568641901,-0.007026370614767075,0.9456855058670044,-0.32490062713623047
1789658828006509136,1789658828018837597,0.012770400382578373,-0.031925998628139496,0.09152120351791382,-0.005386953707784414,-0.20231004059314728,9.769539833068848,0.007110107224434614,-0.008401011116802692,0.9453563094139099,-0.3258402347564697
1789658828019269489,1789658828021454521,0.012770400382578373,-0.031925998628139496,0.09152120351791382,-0.005386953707784414,-0.20231004059314728,9.769539833068848,0.007110107224434614,-0.008401011116802692,0.9453563094139099,-0.3258402347564697
1789658828021919560,1789658828025467746,0.012770400382578373,-0.031925998628139496,0.09152120351791382,-0.005386953707784414,-0.20231004059314728,9.769539833068848,0.007110107224434614,-0.008401011116802692,0.9453563094139099,-0.3258402347564697
1789658828026255884,1789658828027930472,0.012770400382578373,-0.031925998628139496,0.09152120351791382,-0.005386953707784414,-0.20231004059314728,9.769539833068848,0.007110107224434614,-0.008401011116802692,0.9453563094139099,-0.3258402347564697
1789658828031353255,1789658828040583606,0.011706200428307056,-0.03086180053651333,0.09152120351791382,0.07781155407428741,-0.23523031175136566,9.757569313049316,0.008294236846268177,-0.007998425513505936,0.9450384974479675,-0.32674264907836914
1789658828040111679,1789658828042466668,0.011706200428307056,-0.03086180053651333,0.09152120351791382,0.07781155407428741,-0.23523031175136566,9.757569313049316,0.008294236846268177,-0.007998425513505936,0.9450384974479675,-0.32674264907836914
1789658828042963502,1789658828045175107,0.011706200428307056,-0.03086180053651333,0.09152120351791382,0.07781155407428741,-0.23523031175136566,9.757569313049316,0.008294236846268177,-0.007998425513505936,0.9450384974479675,-0.32674264907836914
1789658828047198533,1789658828050346530,0.011706200428307056,-0.03086180053651333,0.09152120351791382,0.07781155407428741,-0.23523031175136566,9.757569313049316,0.008294236846268177,-0.007998425513505936,0.9450384974479675,-0.32674264907836914
1789658828051783664,1789658828061043106,0.012770400382578373,-0.03086180053651333,0.09258539974689484,0.10175357013940811,-0.21009118854999542,10.007164001464844,0.008299448527395725,-0.0071055348962545395,0.9447295665740967,-0.32765546441078186
1789658828060982423,1789658828063133438,0.012770400382578373,-0.03086180053651333,0.09258539974689484,0.10175357013940811,-0.21009118854999542,10.007164001464844,0.008299448527395725,-0.0071055348962545395,0.9447295665740967,-0.32765546441078186
1789658828063619605,1789658828065614422,0.012770400382578373,-0.03086180053651333,0.09258539974689484,0.10175357013940811,-0.21009118854999542,10.007164001464844,0.008299448527395725,-0.0071055348962545395,0.9447295665740967,-0.32765546441078186
1789658828066476632,1789658828070077612,0.012770400382578373,-0.03086180053651333,0.09258539974689484,0.10175357013940811,-0.21009118854999542,10.007164001464844,0.008299448527395725,-0.0071055348962545395,0.9447295665740967,-0.32765546441078186
1789658828071559818,1789658828082262338,0.009577799588441849,-0.03299019858241081,0.09364960342645645,0.011971008032560349,-0.21188685297966003,9.853935241699219,0.00819647591561079,-0.00599811552092433,0.9444158673286438,-0.3285831809043884
1789658828082937850,1789658828085953815,0.009577799588441849,-0.03299019858241081,0.09364960342645645,0.011971008032560349,-0.21188685297966003,9.853935241699219,0.00819647591561079,-0.00599811552092433,0.9444158673286438,-0.3285831809043884
1789658828087100163,1789658828090267826,0.009577799588441849,-0.03299019858241081,0.09364960342645645,0.011971008032560349,-0.21188685297966003,9.853935241699219,0.00819647591561079,-0.00599811552092433,0.9444158673286438,-0.3285831809043884
1789658828091736717,1789658828103052418,0.011706200428307056,-0.03299019858241081,0.09152120351791382,0.07003039866685867,-0.18495208024978638,9.892242431640625,0.0074719712138175964,-0.007327491883188486,0.9440872073173523,-0.32951676845550537
1789658828103353333,1789658828104948609,0.011706200428307056,-0.03299019858241081,0.09152120351791382,0.07003039866685867,-0.18495208024978638,9.892242431640625,0.0074719712138175964,-0.007327491883188486,0.9440872073173523,-0.32951676845550537
1789658828106876465,1789658828111102460,0.011706200428307056,-0.03299019858241081,0.09152120351791382,0.07003039866685867,-0.18495208024978638,9.892242431640625,0.0074719712138175964,-0.007327491883188486,0.9440872073173523,-0.32951676845550537
1789658828111305212,1789658828124976458,0.012770400382578373,-0.03405439853668213,0.09152120351791382,0.06823474913835526,-0.1867477297782898,9.894038200378418,0.007915153168141842,-0.008038639090955257,0.9437597393989563,-0.3304266035556793
1789658828124946292,1789658828127990700,0.012770400382578373,-0.03405439853668213,0.09152120351791382,0.06823474913835526,-0.1867477297782898,9.894038200378418,0.007915153168141842,-0.008038639090955257,0.9437597393989563,-0.3304266035556793
1789658828128719100,1789658828130980111,0.012770400382578373,-0.03405439853668213,0.09152120351791382,0.06823474913835526,-0.1867477297782898,9.894038200378418,0.007915153168141842,-0.008038639090955257,0.9437597393989563,-0.3304266035556793
1789658828132160290,1789658828144336590,0.011706200428307056,-0.031925998628139496,0.09152120351791382,0.07541735470294952,-0.2256534993648529,9.79408073425293,0.009040283970534801,-0.008242151699960232,0.9434309005737305,-0.33133018016815186
1789658828145446253,1789658828149178840,0.011706200428307056,-0.031925998628139496,0.09152120351791382,0.07541735470294952,-0.2256534993648529,9.79408073425293,0.009040283970534801,-0.008242151699960232,0.9434309005737305,-0.33133018016815186
1789658828151031773,1789658828154142364,0.011706200428307056,-0.031925998628139496,0.09152120351791382,0.07541735470294952,-0.2256534993648529,9.79408073425293,0.009040283970534801,-0.008242151699960232,0.9434309005737305,-0.33133018016815186
1789658828154789322,1789658828165060432,0.012770400382578373,-0.03086180053651333,0.09152120351791382,0.08978256583213806,-0.18614917993545532,9.871891975402832,0.007950791157782078,-0.008304043672978878,0.9431145787239075,-0.3322559893131256
1789658828165936567,1789658828167992067,0.012770400382578373,-0.03086180053651333,0.09152120351791382,0.08978256583213806,-0.18614917993545532,9.871891975402832,0.007950791157782078,-0.008304043672978878,0.9431145787239075,-0.3322559893131256
1789658828168821462,1789658828172211210,0.012770400382578373,-0.03086180053651333,0.09152120351791382,0.08978256583213806,-0.18614917993545532,9.871891975402832,0.007950791157782078,-0.008304043672978878,0.9431145787239075,-0.3322559893131256
1789658828172851465,1789658828175727249,0.012770400382578373,-0.03086180053651333,0.09152120351791382,0.08978256583213806,-0.18614917993545532,9.871891975402832,0.007950791157782078,-0.008304043672978878,0.9431145787239075,-0.3322559893131256
1789658828177074201,1789658828186162279,0.012770400382578373,-0.03086180053651333,0.09258539974689484,0.07481880486011505,-0.21128830313682556,9.767146110534668,0.008154543116688728,-0.007328036241233349,0.9427979588508606,-0.3331716060638428
1789658828186083911,1789658828190389589,0.012770400382578373,-0.03086180053651333,0.09258539974689484,0.07481880486011505,-0.21128830313682556,9.767146110534668,0.008154543116688728,-0.007328036241233349,0.9427979588508606,-0.3331716060638428
1789658828191323907,1789658828193497199,0.012770400382578373,-0.03086180053651333,0.09258539974689484,0.07481880486011505,-0.21128830313682556,9.767146110534668,0.008154543116688728,-0.007328036241233349,0.9427979588508606,-0.3331716060638428
1789658828196352577,1789658828207119594,0.011706200428307056,-0.031925998628139496,0.09364960342645645,0.04848258197307587,-0.2172738015651703,9.962871551513672,0.009126454591751099,-0.006929726805537939,0.9424633383750916,-0.3341003954410553
1789658828207026375,1789658828209087893,0.011706200428307056,-0.031925998628139496,0.09364960342645645,0.04848258197307587,-0.2172738015651703,9.962871551513672,0.009126454591751099,-0.006929726805537939,0.9424633383750916,-0.3341003954410553
1789658828211379569,1789658828215083750,0.011706200428307056,-0.031925998628139496,0.09364960342645645,0.04848258197307587,-0.2172738015651703,9.962871551513672,0.009126454591751099,-0.006929726805537939,0.9424633383750916,-0.3341003954410553
1789658828216740783,1789658828228540207,0.012770400382578373,-0.031925998628139496,0.0904569998383522,0.011971008032560349,-0.22206220030784607,9.825803756713867,0.008570317178964615,-0.008380859158933163,0.9421290755271912,-0.3350231945514679
1789658828228258032,1789658828230077429,0.012770400382578373,-0.031925998628139496,0.0904569998383522,0.011971008032560349,-0.22206220030784607,9.825803756713867,0.008570317178964615,-0.008380859158933163,0.9421290755271912,-0.3350231945514679
1789658828231774701,1789658828235061879,0.012770400382578373,-0.031925998628139496,0.0904569998383522,0.011971008032560349,-0.22206220030784607,9.825803756713867,0.008570317178964615,-0.008380859158933163,0.9421290755271912,-0.3350231945514679
1789658828236326740,1789658828249975190,0.01383460033684969,-0.03299019858241081,0.09258539974689484,0.13946224749088287,-0.18495208024978638,9.75397777557373,0.009185299277305603,-0.006634689401835203,0.941818118095398,-0.3359188735485077
1789658828249406359,1789658828252059596,0.01383460033684969,-0.03299019858241081,0.09258539974689484,0.13946224749088287,-0.18495208024978638,9.75397777557373,0.009185299277305603,-0.006634689401835203,0.941818118095398,-0.3359188735485077
1789658828253132983,1789658828257537657,0.01383460033684969,-0.03299019858241081,0.09258539974689484,0.13946224749088287,-0.18495208024978638,9.75397777557373,0.009185299277305603,-0.006634689401835203,0.941818118095398,-0.3359188735485077
1789658828257879404,1789658828271220217,0.011706200428307056,-0.03086180053651333,0.09364960342645645,0.09816227108240128,-0.2585737705230713,9.849146842956543,0.008915316313505173,-0.008351120166480541,0.9414728283882141,-0.3368544578552246
1789658828271755772,1789658828274273829,0.011706200428307056,-0.03086180053651333,0.09364960342645645,0.09816227108240128,-0.2585737705230713,9.849146842956543,0.008915316313505173,-0.008351120166480541,0.9414728283882141,-0.3368544578552246
1789658828276969861,1789658828279435901,0.011706200428307056,-0.03086180053651333,0.09364960342645645,0.09816227108240128,-0.2585737705230713,9.849146842956543,0.008915316313505173,-0.008351120166480541,0.9414728283882141,-0.3368544578552246
1789658828281405793,1789658828290114181,0.012770400382578373,-0.03086180053651333,0.09364960342645645,0.10474631935358047,-0.20111294090747833,9.946710586547852,0.008322514593601227,-0.007756460458040237,0.9411513209342957,-0.33778125047683716
1789658828290039740,1789658828293210588,0.012770400382578373,-0.03086180053651333,0.09364960342645645,0.10474631935358047,-0.20111294090747833,9.946710586547852,0.008322514593601227,-0.007756460458040237,0.9411513209342957,-0.33778125047683716
1789658828293787030,1789658828297066207,0.012770400382578373,-0.03086180053651333,0.09364960342645645,0.10474631935358047,-0.20111294090747833,9.946710586547852,0.008322514593601227,-0.007756460458040237,0.9411513209342957,-0.33778125047683716
1789658828297653945,1789658828300053840,0.012770400382578373,-0.03086180053651333,0.09364960342645645,0.10474631935358047,-0.20111294090747833,9.946710586547852,0.008322514593601227,-0.007756460458040237,0.9411513209342957,-0.33778125047683716
1789658828301415902,1789658828311259193,0.011706200428307056,-0.03086180053651333,0.09364960342645645,0.08858545869588852,-0.1909375786781311,9.903017044067383,0.009188925847411156,-0.007912926375865936,0.940812885761261,-0.3386964499950409
1789658828311176863,1789658828314558185,0.011706200428307056,-0.03086180053651333,0.09364960342645645,0.08858545869588852,-0.1909375786781311,9.903017044067383,0.009188925847411156,-0.007912926375865936,0.940812885761261,-0.3386964499950409
1789658828316676516,1789658828321394919,0.011706200428307056,-0.03086180053651333,0.09364960342645645,0.08858545869588852,-0.1909375786781311,9.903017044067383,0.009188925847411156,-0.007912926375865936,0.940812885761261,-0.3386964499950409
1789658828321539284,1789658828332163399,0.01383460033684969,-0.03086180053651333,0.09258539974689484,0.09217676520347595,-0.22744916379451752,9.99339771270752,0.008168683387339115,-0.008413276635110378,0.9404807090759277,-0.33963218331336975
1789658828332956093,1789658828335802360,0.01383460033684969,-0.03086180053651333,0.09258539974689484,0.09217676520347595,-0.22744916379451752,9.99339771270752,0.008168683387339115,-0.008413276635110378,0.9404807090759277,-0.33963218331336975
1789658828336463651,1789658828338946839,0.01383460033684969,-0.03086180053651333,0.09258539974689484,0.09217676520347595,-0.22744916379451752,9.99339771270752,0.008168683387339115,-0.008413276635110378,0.9404807090759277,-0.33963218331336975
1789658828341357363,1789658828353208008,0.01383460033684969,-0.031925998628139496,0.09152120351791382,0.06883329898118973,-0.20709843933582306,9.865307807922363,0.006806918885558844,-0.00897976290434599,0.9401506781578064,-0.34056004881858826
1789658828354435593,1789658828359696365,0.01383460033684969,-0.031925998628139496,0.09152120351791382,0.06883329898118973,-0.20709843933582306,9.865307807922363,0.006806918885558844,-0.00897976290434599,0.9401506781578064,-0.34056004881858826
1789658828359334415,1789658828361824899,0.01383460033684969,-0.031925998628139496,0.09152120351791382,0.06883329898118973,-0.20709843933582306,9.865307807922363,0.006806918885558844,-0.00897976290434599,0.9401506781578064,-0.34056004881858826
1789658828362918749,1789658828374278133,0.011706200428307056,-0.031925998628139496,0.09364960342645645,0.09876082092523575,-0.18555063009262085,9.929352760314941,0.006220456212759018,-0.008405902422964573,0.9398289322853088,-0.3414729833602905
1789658828374936869,1789658828380164643,0.011706200428307056,-0.031925998628139496,0.09364960342645645,0.09876082092523575,-0.18555063009262085,9.929352760314941,0.006220456212759018,-0.008405902422964573,0.9398289322853088,-0.3414729833602905
1789658828380127459,1789658828385322326,0.011706200428307056,-0.031925998628139496,0.09364960342645645,0.09876082092523575,-0.18555063009262085,9.929352760314941,0.006220456212759018,-0.008405902422964573,0.9398289322853088,-0.3414729833602905
1789658828385523597,1789658828396400703,0.011706200428307056,-0.029797600582242012,0.09258539974689484,0.104147769510746,-0.18974047899246216,9.850343704223633,0.005721920635551214,-0.008117567747831345,0.9394975304603577,-0.3423992991447449
1789658828395773374,1789658828399014849,0.011706200428307056,-0.029797600582242012,0.09258539974689484,0.104147769510746,-0.18974047899246216,9.850343704223633,0.005721920635551214,-0.008117567747831345,0.9394975304603577,-0.3423992991447449
1789658828399821857,1789658828401931817,0.011706200428307056,-0.029797600582242012,0.09258539974689484,0.104147769510746,-0.18974047899246216,9.850343704223633,0.005721920635551214,-0.008117567747831345,0.9394975304603577,-0.3423992991447449
1789658828402837822,1789658828417883480,0.010641999542713165,-0.03086180053651333,0.09364960342645645,0.11791443079710007,-0.17058686912059784,9.944316864013672,0.0072308131493628025,-0.006418726872652769,0.9391713738441467,-0.34330031275749207
1789658828417256873,1789658828422320542,0.010641999542713165,-0.03086180053651333,0.09364960342645645,0.11791443079710007,-0.17058686912059784,9.944316864013672,0.0072308131493628025,-0.006418726872652769,0.9391713738441467,-0.34330031275749207
1789658828422002220,1789658828426785528,0.010641999542713165,-0.03086180053651333,0.09364960342645645,0.11791443079710007,-0.17058686912059784,9.944316864013672,0.0072308131493628025,-0.006418726872652769,0.9391713738441467,-0.34330031275749207
1789658828426833267,1789658828436776333,0.011706200428307056,-0.031925998628139496,0.09364960342645645,0.0975637212395668,-0.22206220030784607,9.917980194091797,0.008075494319200516,-0.008121808990836143,0.9388148784637451,-0.3442191481590271
1789658828436874978,1789658828439666729,0.011706200428307056,-0.031925998628139496,0.09364960342645645,0.0975637212395668,-0.22206220030784607,9.917980194091797,0.008075494319200516,-0.008121808990836143,0.9388148784637451,-0.3442191481590271
1789658828441388703,1789658828443247303,0.011706200428307056,-0.031925998628139496,0.09364960342645645,0.0975637212395668,-0.22206220030784607,9.917980194091797,0.008075494319200516,-0.008121808990836143,0.9388148784637451,-0.3442191481590271
1789658828446247620,1789658828457446714,0.012770400382578373,-0.031925998628139496,0.09364960342645645,0.07541735470294952,-0.23582886159420013,9.8599214553833,0.007918733172118664,-0.007241634652018547,0.9384837746620178,-0.3451439440250397
1789658828457256740,1789658828460131691,0.012770400382578373,-0.031925998628139496,0.09364960342645645,0.07541735470294952,-0.23582886159420013,9.8599214553833,0.007918733172118664,-0.007241634652018547,0.9384837746620178,-0.3451439440250397
1789658828461482346,1789658828464040735,0.012770400382578373,-0.031925998628139496,0.09364960342645645,0.07541735470294952,-0.23582886159420013,9.8599214553833,0.007918733172118664,-0.007241634652018547,0.9384837746620178,-0.3451439440250397
1789658828466394687,1789658828478310403,0.012770400382578373,-0.031925998628139496,0.09258539974689484,0.07422025501728058,-0.2256534993648529,9.91738224029541,0.007458729203790426,-0.00881647877395153,0.9381329417228699,-0.3460701107978821
1789658828478198259,1789658828481400254,0.012770400382578373,-0.031925998628139496,0.09258539974689484,0.07422025501728058,-0.2256534993648529,9.91738224029541,0.007458729203790426,-0.00881647877395153,0.9381329417228699,-0.3460701107978821
1789658828482090785,1789658828485260115,0.012770400382578373,-0.031925998628139496,0.09258539974689484,0.07422025501728058,-0.2256534993648529,9.91738224029541,0.007458729203790426,-0.00881647877395153,0.9381329417228699,-0.3460701107978821
1789658828486683489,1789658828500232184,0.012770400382578373,-0.031925998628139496,0.09258539974689484,0.09457096457481384,-0.18914192914962769,9.978433609008789,0.006856575142592192,-0.00865037739276886,0.9377994537353516,-0.34698978066444397
1789658828500260312,1789658828504252612,0.012770400382578373,-0.031925998628139496,0.09258539974689484,0.09457096457481384,-0.18914192914962769,9.978433609008789,0.006856575142592192,-0.00865037739276886,0.9377994537353516,-0.34698978066444397
1789658828504849535,1789658828508470144,0.012770400382578373,-0.031925998628139496,0.09258539974689484,0.09457096457481384,-0.18914192914962769,9.978433609008789,0.006856575142592192,-0.00865037739276886,0.9377994537353516,-0.34698978066444397
1789658828509544957,1789658828520086779,0.014898800291121006,-0.031925998628139496,0.09258539974689484,0.09876082092523575,-0.1951274424791336,9.874884605407715,0.008154969662427902,-0.0074133435264229774,0.9374688267707825,-0.3478826582431793
1789658828520981340,1789658828524359717,0.014898800291121006,-0.031925998628139496,0.09258539974689484,0.09876082092523575,-0.1951274424791336,9.874884605407715,0.008154969662427902,-0.0074133435264229774,0.9374688267707825,-0.3478826582431793
1789658828525301868,1789658828529154803,0.014898800291121006,-0.031925998628139496,0.09258539974689484,0.09876082092523575,-0.1951274424791336,9.874884605407715,0.008154969662427902,-0.0074133435264229774,0.9374688267707825,-0.3478826582431793
1789658828529844704,1789658828542409304,0.012770400382578373,-0.031925998628139496,0.09258539974689484,0.10654197633266449,-0.208295539021492,10.062829971313477,0.007793575990945101,-0.007733986247330904,0.9371280670166016,-0.34880051016807556
1789658828541924396,1789658828545386159,0.012770400382578373,-0.031925998628139496,0.09258539974689484,0.10654197633266449,-0.208295539021492,10.062829971313477,0.007793575990945101,-0.007733986247330904,0.9371280670166016,-0.34880051016807556
1789658828548983437,1789658828562110832,0.010641999542713165,-0.029797600582242012,0.09258539974689484,0.05925649031996727,-0.17657236754894257,9.966463088989258,0.006086060777306557,-0.007277374621480703,0.9368013739585876,-0.34972086548805237
1789658828562769586,1789658828566928990,0.010641999542713165,-0.029797600582242012,0.09258539974689484,0.05925649031996727,-0.17657236754894257,9.966463088989258,0.006086060777306557,-0.007277374621480703,0.9368013739585876,-0.34972086548805237
1789658828566599132,1789658828568317459,0.010641999542713165,-0.029797600582242012,0.09258539974689484,0.05925649031996727,-0.17657236754894257,9.966463088989258,0.006086060777306557,-0.007277374621480703,0.9368013739585876,-0.34972086548805237
1789658828571326091,1789658828583326341,0.011706200428307056,-0.029797600582242012,0.09258539974689484,0.1711854189634323,-0.21188685297966003,9.957484245300293,0.00684113334864378,-0.008265737444162369,0.9364496469497681,-0.3506256639957428
1789658828583197938,1789658828587065187,0.011706200428307056,-0.029797600582242012,0.09258539974689484,0.1711854189634323,-0.21188685297966003,9.957484245300293,0.00684113334864378,-0.008265737444162369,0.9364496469497681,-0.3506256639957428
1789658828587968358,1789658828592409383,0.011706200428307056,-0.029797600582242012,0.09258539974689484,0.1711854189634323,-0.21188685297966003,9.957484245300293,0.00684113334864378,-0.008265737444162369,0.9364496469497681,-0.3506256639957428
1789658828593119468,1789658828604440151,0.011706200428307056,-0.028733400627970695,0.09152120351791382,0.1107318252325058,-0.181959331035614,10.063427925109863,0.006645951420068741,-0.008598326705396175,0.9361078143119812,-0.3515329957008362
1789658828603971519,1789658828609810530,0.011706200428307056,-0.028733400627970695,0.09152120351791382,0.1107318252325058,-0.181959331035614,10.063427925109863,0.006645951420068741,-0.008598326705396175,0.9361078143119812,-0.3515329957008362
1789658828609363176,1789658828612505229,0.011706200428307056,-0.028733400627970695,0.09152120351791382,0.1107318252325058,-0.181959331035614,10.063427925109863,0.006645951420068741,-0.008598326705396175,0.9361078143119812,-0.3515329957008362
1789658828613117633,1789658828625075052,0.010641999542713165,-0.029797600582242012,0.09258539974689484,0.16340425610542297,-0.17417816817760468,9.876680374145508,0.0060995337553322315,-0.007903129793703556,0.9357743263244629,-0.352446049451828
1789658828625206213,1789658828629079184,0.010641999542713165,-0.029797600582242012,0.09258539974689484,0.16340425610542297,-0.17417816817760468,9.876680374145508,0.0060995337553322315,-0.007903129793703556,0.9357743263244629,-0.352446049451828
1789658828629835287,1789658828633070281,0.010641999542713165,-0.029797600582242012,0.09258539974689484,0.16340425610542297,-0.17417816817760468,9.876680374145508,0.0060995337553322315,-0.007903129793703556,0.9357743263244629,-0.352446049451828
1789658828633681277,1789658828645316078,0.012770400382578373,-0.029797600582242012,0.09258539974689484,0.08259996026754379,-0.21428105235099792,9.90361499786377,0.006102077197283506,-0.00868427474051714,0.9354236125946045,-0.3533572852611542
1789658828645861151,1789658828649383653,0.012770400382578373,-0.029797600582242012,0.09258539974689484,0.08259996026754379,-0.21428105235099792,9.90361499786377,0.006102077197283506,-0.00868427474051714,0.9354236125946045,-0.3533572852611542
1789658828652160886,1789658828657724610,0.012770400382578373,-0.029797600582242012,0.09258539974689484,0.08259996026754379,-0.21428105235099792,9.90361499786377,0.006102077197283506,-0.00868427474051714,0.9354236125946045,-0.3533572852611542
1789658828656824439,1789658828666340242,0.011706200428307056,-0.03086180053651333,0.09152120351791382,0.07960720360279083,-0.19692309200763702,9.97065258026123,0.0072425189428031445,-0.007665804587304592,0.9350886940956116,-0.35424479842185974
1789658828666487033,1789658828670075959,0.011706200428307056,-0.03086180053651333,0.09152120351791382,0.07960720360279083,-0.19692309200763702,9.97065258026123,0.0072425189428031445,-0.007665804587304592,0.9350886940956116,-0.35424479842185974
1789658828671337302,1789658828675214847,0.011706200428307056,-0.03086180053651333,0.09152120351791382,0.07960720360279083,-0.19692309200763702,9.97065258026123,0.0072425189428031445,-0.007665804587304592,0.9350886940956116,-0.35424479842185974
1789658828676367176,1789658828686812242,0.014898800291121006,-0.03086180053651333,0.09152120351791382,0.1149216815829277,-0.19393032789230347,9.817423820495605,0.00856876652687788,-0.007994123734533787,0.9347355961799622,-0.3551383912563324
1789658828687876611,1789658828690903297,0.014898800291121006,-0.03086180053651333,0.09152120351791382,0.1149216815829277,-0.19393032789230347,9.817423820495605,0.00856876652687788,-0.007994123734533787,0.9347355961799622,-0.3551383912563324
1789658828692516739,1789658828696056352,0.014898800291121006,-0.03086180053651333,0.09152120351791382,0.1149216815829277,-0.19393032789230347,9.817423820495605,0.00856876652687788,-0.007994123734533787,0.9347355961799622,-0.3551383912563324
1789658828697065482,1789658828707625192,0.01383460033684969,-0.029797600582242012,0.09258539974689484,0.03651157394051552,-0.2017114907503128,10.028712272644043,0.006905143149197102,-0.008506511338055134,0.9343938231468201,-0.35606083273887634
1789658828708479679,1789658828712751562,0.01383460033684969,-0.029797600582242012,0.09258539974689484,0.03651157394051552,-0.2017114907503128,10.028712272644043,0.006905143149197102,-0.008506511338055134,0.9343938231468201,-0.35606083273887634
1789658828713175287,1789658828717584109,0.01383460033684969,-0.029797600582242012,0.09258539974689484,0.03651157394051552,-0.2017114907503128,10.028712272644043,0.006905143149197102,-0.008506511338055134,0.9343938231468201,-0.35606083273887634
1789658828717963058,1789658828728316702,0.012770400382578373,-0.029797600582242012,0.09152120351791382,0.060453593730926514,-0.20290859043598175,9.93593692779541,0.006554362829774618,-0.00771343382075429,0.934060275554657,-0.356959730386734
1789658828729001288,1789658828733997255,0.012770400382578373,-0.029797600582242012,0.09152120351791382,0.060453593730926514,-0.20290859043598175,9.93593692779541,0.006554362829774618,-0.00771343382075429,0.934060275554657,-0.356959730386734
1789658828734578216,1789658828737120420,0.012770400382578373,-0.029797600582242012,0.09152120351791382,0.060453593730926514,-0.20290859043598175,9.93593692779541,0.006554362829774618,-0.00771343382075429,0.934060275554657,-0.356959730386734
1789658828737709602,1789658828749469251,0.012770400382578373,-0.029797600582242012,0.09258539974689484,0.08319851011037827,-0.18974047899246216,10.065223693847656,0.006528138183057308,-0.008174765855073929,0.9337109327316284,-0.3578628599643707
1789658828749874551,1789658828754718024,0.012770400382578373,-0.029797600582242012,0.09258539974689484,0.08319851011037827,-0.18974047899246216,10.065223693847656,0.006528138183057308,-0.008174765855073929,0.9337109327316284,-0.3578628599643707
1789658828756734321,1789658828770459361,0.012770400382578373,-0.03086180053651333,0.09152120351791382,0.04967968538403511,-0.2148796021938324,9.987412452697754,0.005956480745226145,-0.007607079576700926,0.93337082862854,-0.35877129435539246
1789658828771187520,1789658828774338406,0.012770400382578373,-0.03086180053651333,0.09152120351791382,0.04967968538403511,-0.2148796021938324,9.987412452697754,0.005956480745226145,-0.007607079576700926,0.93337082862854,-0.35877129435539246
1789658828776714246,1789658828779588678,0.012770400382578373,-0.03086180053651333,0.09152120351791382,0.04967968538403511,-0.2148796021938324,9.987412452697754,0.005956480745226145,-0.007607079576700926,0.93337082862854,-0.35877129435539246
1789658828781348356,1789658828791448545,0.01383460033684969,-0.029797600582242012,0.09152120351791382,0.1215057373046875,-0.19393032789230347,9.892841339111328,0.007661551237106323,-0.008031564764678478,0.9330170154571533,-0.359649121761322
1789658828791158185,1789658828793273313,0.01383460033684969,-0.029797600582242012,0.09152120351791382,0.1215057373046875,-0.19393032789230347,9.892841339111328,0.007661551237106323,-0.008031564764678478,0.9330170154571533,-0.359649121761322
1789658828796307129,1789658828800321965,0.01383460033684969,-0.029797600582242012,0.09152120351791382,0.1215057373046875,-0.19393032789230347,9.892841339111328,0.007661551237106323,-0.008031564764678478,0.9330170154571533,-0.359649121761322
1789658828801332058,1789658828811406211,0.01383460033684969,-0.029797600582242012,0.09258539974689484,0.03172317147254944,-0.2256534993648529,9.982025146484375,0.006238691043108702,-0.008851802907884121,0.93266361951828,-0.36057260632514954
1789658828811299845,1789658828815209944,0.01383460033684969,-0.029797600582242012,0.09258539974689484,0.03172317147254944,-0.2256534993648529,9.982025146484375,0.006238691043108702,-0.008851802907884121,0.93266361951828,-0.36057260632514954
1789658828816871810,1789658828821214134,0.01383460033684969,-0.029797600582242012,0.09258539974689484,0.03172317147254944,-0.2256534993648529,9.982025146484375,0.006238691043108702,-0.008851802907884121,0.93266361951828,-0.36057260632514954
1789658828821293798,1789658828832690811,0.01383460033684969,-0.04043959826231003,0.07555820047855377,2.3104045391082764,-1.2006921768188477,9.258975982666016,0.008629510179162025,-0.008402924984693527,0.9323169589042664,-0.36142948269844055
1789658828832783086,1789658828835357066,0.01383460033684969,-0.04043959826231003,0.07555820047855377,2.3104045391082764,-1.2006921768188477,9.258975982666016,0.008629510179162025,-0.008402924984693527,0.9323169589042664,-0.36142948269844055
1789658828836814162,1789658828839098153,0.01383460033684969,-0.04043959826231003,0.07555820047855377,2.3104045391082764,-1.2006921768188477,9.258975982666016,0.008629510179162025,-0.008402924984693527,0.9323169589042664,-0.36142948269844055
1789658828841361108,1789658828853689717,0.01809139922261238,0.020219799131155014,-0.11493360251188278,2.3253684043884277,-0.20949263870716095,9.964068412780762,0.010592170059680939,-0.007618126925081015,0.9324791431427002,-0.36097612977027893
1789658828855626481,1789658828858317865,0.01809139922261238,0.020219799131155014,-0.11493360251188278,2.3253684043884277,-0.20949263870716095,9.964068412780762,0.010592170059680939,-0.007618126925081015,0.9324791431427002,-0.36097612977027893
1789658828858867919,1789658828863100432,0.01809139922261238,0.020219799131155014,-0.11493360251188278,2.3253684043884277,-0.20949263870716095,9.964068412780762,0.010592170059680939,-0.007618126925081015,0.9324791431427002,-0.36097612977027893
1789658828863628746,1789658828874849321,-0.03299019858241081,-0.041503798216581345,-0.23731659352779388,1.5430629253387451,0.7344213724136353,10.858901977539062,0.012002329342067242,-0.006104667671024799,0.9333062767982483,-0.35881689190864563
1789658828875350896,1789658828879094279,-0.03299019858241081,-0.041503798216581345,-0.23731659352779388,1.5430629253387451,0.7344213724136353,10.858901977539062,0.012002329342067242,-0.006104667671024799,0.9333062767982483,-0.35881689190864563
1789658828881457693,1789658828884705168,-0.03299019858241081,-0.041503798216581345,-0.23731659352779388,1.5430629253387451,0.7344213724136353,10.858901977539062,0.012002329342067242,-0.006104667671024799,0.9333062767982483,-0.35881689190864563
1789658828887095489,1789658828895935317,0.02447660081088543,-0.09577800333499908,-0.2117757946252823,1.0797849893569946,-0.3705027103424072,9.03870964050293,0.01487167738378048,-0.005205195397138596,0.9341219067573547,-0.3565942347049713
1789658828896712789,1789658828900374305,0.02447660081088543,-0.09577800333499908,-0.2117757946252823,1.0797849893569946,-0.3705027103424072,9.03870964050293,0.01487167738378048,-0.005205195397138596,0.9341219067573547,-0.3565942347049713
1789658828901410230,1789658828904043616,0.02447660081088543,-0.09577800333499908,-0.2117757946252823,1.0797849893569946,-0.3705027103424072,9.03870964050293,0.01487167738378048,-0.005205195397138596,0.9341219067573547,-0.3565942347049713
1789658828906359810,1789658828917320043,0.05108160153031349,-0.025540800765156746,-0.1990053951740265,1.1492167711257935,-0.49380409717559814,9.346962928771973,0.017131298780441284,-0.004982959479093552,0.9348249435424805,-0.354648232460022
1789658828916285025,1789658828918046628,0.05108160153031349,-0.025540800765156746,-0.1990053951740265,1.1492167711257935,-0.49380409717559814,9.346962928771973,0.017131298780441284,-0.004982959479093552,0.9348249435424805,-0.354648232460022
1789658828921370396,1789658828925344641,0.05108160153031349,-0.025540800765156746,-0.1990053951740265,1.1492167711257935,-0.49380409717559814,9.346962928771973,0.017131298780441284,-0.004982959479093552,0.9348249435424805,-0.354648232460022
1789658828926286329,1789658828937836041,0.011706200428307056,0.03724699839949608,-0.15963000059127808,0.9421183466911316,0.42616790533065796,11.763311386108398,0.018236853182315826,-0.003476582234725356,0.9354849457740784,-0.3528662919998169
1789658828937313152,1789658828939219676,0.011706200428307056,0.03724699839949608,-0.15963000059127808,0.9421183466911316,0.42616790533065796,11.763311386108398,0.018236853182315826,-0.003476582234725356,0.9354849457740784,-0.3528662919998169
1789658828941347099,1789658828944350545,0.011706200428307056,0.03724699839949608,-0.15963000059127808,0.9421183466911316,0.42616790533065796,11.763311386108398,0.018236853182315826,-0.003476582234725356,0.9354849457740784,-0.3528662919998169
1789658828946277661,1789658828958572308,0.012770400382578373,-0.09471379965543747,-0.022348200902342796,0.26755204796791077,-0.5195417404174805,8.451531410217285,0.019040891900658607,-0.0025196964852511883,0.9357272386550903,-0.35218894481658936
1789658828958268597,1789658828960240877,0.012770400382578373,-0.09471379965543747,-0.022348200902342796,0.26755204796791077,-0.5195417404174805,8.451531410217285,0.019040891900658607,-0.0025196964852511883,0.9357272386550903,-0.35218894481658936
1789658828961620383,1789658828965096961,0.012770400382578373,-0.09471379965543747,-0.022348200902342796,0.26755204796791077,-0.5195417404174805,8.451531410217285,0.019040891900658607,-0.0025196964852511883,0.9357272386550903,-0.35218894481658936
1789658828966708976,1789658828980799855,0.03937539830803871,-0.05108160153031349,0.03724699839949608,0.5979518890380859,-0.17896656692028046,8.991424560546875,0.021876772865653038,-0.001886600162833929,0.935554027557373,-0.3524879515171051
1789658828980947739,1789658828983267710,0.03937539830803871,-0.05108160153031349,0.03724699839949608,0.5979518890380859,-0.17896656692028046,8.991424560546875,0.021876772865653038,-0.001886600162833929,0.935554027557373,-0.3524879515171051
1789658828984672456,1789658828988469281,0.03937539830803871,-0.05108160153031349,0.03724699839949608,0.5979518890380859,-0.17896656692028046,8.991424560546875,0.021876772865653038,-0.001886600162833929,0.935554027557373,-0.3524879515171051
1789658828989268900,1789658828999377590,0.02447660081088543,0.041503798216581345,0.06172360107302666,0.24001871049404144,0.16759411990642548,9.088988304138184,0.021598126739263535,0.00010814941924763843,0.9353839159011841,-0.3529616892337799
1789658828999808667,1789658829002137545,0.02447660081088543,0.041503798216581345,0.06172360107302666,0.24001871049404144,0.16759411990642548,9.088988304138184,0.021598126739263535,0.00010814941924763843,0.9353839159011841,-0.3529616892337799
1789658829002776189,1789658829005970536,0.02447660081088543,0.041503798216581345,0.06172360107302666,0.24001871049404144,0.16759411990642548,9.088988304138184,0.021598126739263535,0.00010814941924763843,0.9353839159011841,-0.3529616892337799
1789658829007026313,1789658829008903523,0.02447660081088543,0.041503798216581345,0.06172360107302666,0.24001871049404144,0.16759411990642548,9.088988304138184,0.021598126739263535,0.00010814941924763843,0.9353839159011841,-0.3529616892337799
1789658829011322880,1789658829020416884,0.010641999542713165,-0.06278780102729797,0.06278780102729797,-1.4879963397979736,-0.4824316203594208,10.630853652954102,0.01987176015973091,-0.0006076774443499744,0.9351534247398376,-0.3536725342273712
1789658829020272037,1789658829023814798,0.010641999542713165,-0.06278780102729797,0.06278780102729797,-1.4879963397979736,-0.4824316203594208,10.630853652954102,0.01987176015973091,-0.0006076774443499744,0.9351534247398376,-0.3536725342273712
1789658829024304298,1789658829027179824,0.010641999542713165,-0.06278780102729797,0.06278780102729797,-1.4879963397979736,-0.4824316203594208,10.630853652954102,0.01987176015973091,-0.0006076774443499744,0.9351534247398376,-0.3536725342273712
1789658829027774988,1789658829030064497,0.010641999542713165,-0.06278780102729797,0.06278780102729797,-1.4879963397979736,-0.4824316203594208,10.630853652954102,0.01987176015973091,-0.0006076774443499744,0.9351534247398376,-0.3536725342273712
1789658829031335674,1789658829042772408,0.028733400627970695,-0.0776866003870964,0.06917300075292587,0.6841431260108948,-0.4818330705165863,8.45931339263916,0.02138354443013668,-0.001703928573988378,0.934863805770874,-0.3543456792831421
1789658829042330127,1789658829047221895,0.028733400627970695,-0.0776866003870964,0.06917300075292587,0.6841431260108948,-0.4818330705165863,8.45931339263916,0.02138354443013668,-0.001703928573988378,0.934863805770874,-0.3543456792831421
1789658829048773487,1789658829056161534,0.028733400627970695,-0.0776866003870964,0.06917300075292587,0.6841431260108948,-0.4818330705165863,8.45931339263916,0.02138354443013668,-0.001703928573988378,0.934863805770874,-0.3543456792831421
1789658829051612884,1789658829062362587,0.031925998628139496,0.03086180053651333,0.053210001438856125,0.5249286890029907,0.3513490855693817,9.456498146057129,0.022174183279275894,0.0002505112497601658,0.9346314072608948,-0.3549136519432068
1789658829062938252,1789658829065324462,0.031925998628139496,0.03086180053651333,0.053210001438856125,0.5249286890029907,0.3513490855693817,9.456498146057129,0.022174183279275894,0.0002505112497601658,0.9346314072608948,-0.3549136519432068
1789658829066388627,1789658829069024291,0.031925998628139496,0.03086180053651333,0.053210001438856125,0.5249286890029907,0.3513490855693817,9.456498146057129,0.022174183279275894,0.0002505112497601658,0.9346314072608948,-0.3549136519432068
1789658829071345225,1789658829083952361,0.014898800291121006,-0.053210001438856125,0.0649162009358406,-0.9409212470054626,-0.6338648796081543,12.516886711120605,0.020343733951449394,-0.0005487606395035982,0.9344377517700195,-0.3555324077606201
1789658829083401455,1789658829086451826,0.014898800291121006,-0.053210001438856125,0.0649162009358406,-0.9409212470054626,-0.6338648796081543,12.516886711120605,0.020343733951449394,-0.0005487606395035982,0.9344377517700195,-0.3555324077606201
1789658829087066656,1789658829091049345,0.014898800291121006,-0.053210001438856125,0.0649162009358406,-0.9409212470054626,-0.6338648796081543,12.516886711120605,0.020343733951449394,-0.0005487606395035982,0.9344377517700195,-0.3555324077606201
1789658829091591140,1789658829104802495,0.03405439853668213,-0.10109899938106537,0.07555820047855377,0.6290764808654785,-0.18555063009262085,8.365939140319824,0.021335244178771973,-0.0009988000383600593,0.934127688407898,-0.3562873303890228
1789658829104314550,1789658829106775091,0.03405439853668213,-0.10109899938106537,0.07555820047855377,0.6290764808654785,-0.18555063009262085,8.365939140319824,0.021335244178771973,-0.0009988000383600593,0.934127688407898,-0.3562873303890228
1789658829106916567,1789658829111698579,0.03405439853668213,-0.10109899938106537,0.07555820047855377,0.6290764808654785,-0.18555063009262085,8.365939140319824,0.021335244178771973,-0.0009988000383600593,0.934127688407898,-0.3562873303890228
1789658829112513457,1789658829125669666,0.03405439853668213,0.026605000719428062,0.07662239670753479,0.7380126714706421,-0.05446808785200119,9.405621528625488,0.023103831335902214,0.0003782951971516013,0.933807909488678,-0.3570156991481781
1789658829126031468,1789658829129664595,0.03405439853668213,0.026605000719428062,0.07662239670753479,0.7380126714706421,-0.05446808785200119,9.405621528625488,0.023103831335902214,0.0003782951971516013,0.933807909488678,-0.3570156991481781
1789658829129997268,1789658829132412699,0.03405439853668213,0.026605000719428062,0.07662239670753479,0.7380126714706421,-0.05446808785200119,9.405621528625488,0.023103831335902214,0.0003782951971516013,0.933807909488678,-0.3570156991481781
1789658829132930088,1789658829147460173,0.009577799588441849,-0.04043959826231003,0.07875079661607742,-1.0875661373138428,-0.3034650683403015,13.34049129486084,0.02094057947397232,-3.9344180549960583e-05,0.9335559606552124,-0.3578072786331177
1789658829147115167,1789658829150178538,0.009577799588441849,-0.04043959826231003,0.07875079661607742,-1.0875661373138428,-0.3034650683403015,13.34049129486084,0.02094057947397232,-3.9344180549960583e-05,0.9335559606552124,-0.3578072786331177
1789658829153121116,1789658829155206134,0.009577799588441849,-0.04043959826231003,0.07875079661607742,-1.0875661373138428,-0.3034650683403015,13.34049129486084,0.02094057947397232,-3.9344180549960583e-05,0.9335559606552124,-0.3578072786331177
1789658829157209802,1789658829167171645,0.025540800765156746,-0.10535579919815063,0.08513599634170532,0.3818751573562622,-0.10295066982507706,6.906074523925781,0.021520277485251427,-0.00025947747053578496,0.933225154876709,-0.3586350083351135
1789658829167956950,1789658829171028320,0.025540800765156746,-0.10535579919815063,0.08513599634170532,0.3818751573562622,-0.10295066982507706,6.906074523925781,0.021520277485251427,-0.00025947747053578496,0.933225154876709,-0.3586350083351135
1789658829171774700,1789658829174276721,0.025540800765156746,-0.10535579919815063,0.08513599634170532,0.3818751573562622,-0.10295066982507706,6.906074523925781,0.021520277485251427,-0.00025947747053578496,0.933225154876709,-0.3586350083351135
1789658829176864886,1789658829187269028,0.03405439853668213,0.025540800765156746,0.08726440370082855,0.9487023949623108,0.04728548228740692,9.4822359085083,0.02331121638417244,0.0011983131989836693,0.9328612685203552,-0.3594667315483093
1789658829187191550,1789658829191133851,0.03405439853668213,0.025540800765156746,0.08726440370082855,0.9487023949623108,0.04728548228740692,9.4822359085083,0.02331121638417244,0.0011983131989836693,0.9328612685203552,-0.3594667315483093
1789658829192121371,1789658829194152835,0.03405439853668213,0.025540800765156746,0.08726440370082855,0.9487023949623108,0.04728548228740692,9.4822359085083,0.02331121638417244,0.0011983131989836693,0.9328612685203552,-0.3594667315483093
1789658829196292609,1789658829208956521,0.0,0.0,0.08939280360937119,-0.9445125460624695,-0.2412158101797104,13.71937370300293,0.020913438871502876,0.0006316385115496814,0.9325799345970154,-0.3603445291519165
1789658829208398189,1789658829211271308,0.0,0.0,0.08939280360937119,-0.9445125460624695,-0.2412158101797104,13.71937370300293,0.020913438871502876,0.0006316385115496814,0.9325799345970154,-0.3603445291519165
1789658829214994988,1789658829224341908,0.0,0.0,0.08939280360937119,-0.9445125460624695,-0.2412158101797104,13.71937370300293,0.020913438871502876,0.0006316385115496814,0.9325799345970154,-0.3603445291519165
